cond,session,trial,size,orLarge,phase,dur,orSmall,task,response,rt,subject
angle,1,1,8,180,0.0,6,-0.5,equ,m,3.55157908374,1
angle,1,2,8,180,0.4,6,-0.5,equ,n,1.84635109139,1
angle,1,3,8,90,0.8,6,-2.0,comp,up,1.48178794049,1
angle,1,4,8,90,0.4,6,1.0,equ,n,2.63431420234,1
angle,1,5,8,180,0.6,6,0.0,equ,n,1.82281920404,1
angle,1,6,8,0,0.2,6,-1.5,equ,n,1.81107913223,1
angle,1,7,8,0,0.2,6,0.0,equ,m,1.61113762178,1
angle,1,8,8,90,0.4,6,0.5,comp,down,1.72877674431,1
angle,1,9,8,90,0.2,6,-2.0,equ,n,2.51670880904,1
angle,1,10,8,180,0.8,6,-2.0,equ,n,1.99924569176,1
angle,1,11,8,180,0.0,6,0.5,equ,m,1.34065180971,1
angle,1,12,8,270,0.4,6,2.0,equ,n,3.18701593285,1
angle,1,13,8,180,0.0,6,-2.0,equ,n,1.32890023928,1
angle,1,14,8,90,0.2,6,2.0,equ,n,1.32889947271,1
angle,1,15,8,180,0.4,6,-1.0,comp,right,2.17565493158,1
angle,1,16,8,270,0.8,6,0.0,comp,up,1.21147077458,1
angle,1,17,8,90,0.0,6,0.0,comp,up,0.99963549434,1
angle,1,18,8,180,0.6,6,-1.0,comp,right,2.44614074364,1
angle,1,19,8,0,0.0,6,0.0,equ,n,1.97575021665,1
angle,1,20,8,180,0.8,6,-0.5,comp,right,1.86986726398,1
angle,1,21,8,90,0.6,6,-2.0,equ,n,2.0462504403,1
angle,1,22,8,90,0.4,6,-0.5,comp,down,1.58760726757,1
angle,1,23,8,90,0.2,6,1.5,equ,n,1.52885746449,1
angle,1,24,8,180,0.0,6,0.0,equ,m,1.32890522201,1
angle,1,25,8,0,0.0,6,2.0,comp,right,1.1760493336,1
angle,1,26,8,180,0.6,6,2.0,equ,n,1.17601292136,1
angle,1,27,8,90,0.8,6,-2.0,equ,n,1.43476211119,1
angle,1,28,8,0,0.2,6,2.0,comp,right,2.1403457936,1
angle,1,29,8,90,0.4,6,-1.0,comp,up,5.85666533666,1
angle,1,30,8,270,0.6,6,-0.5,equ,n,2.5166781461,1
angle,1,31,8,0,0.4,6,2.0,equ,n,2.37557344482,1
angle,1,32,8,270,0.0,6,-0.5,comp,down,2.36380960923,1
angle,1,33,8,0,0.8,6,0.0,equ,m,1.30538713299,1
angle,1,34,8,0,0.6,6,0.0,comp,right,1.08191680149,1
angle,1,35,8,90,0.2,6,0.5,comp,down,1.61116483513,1
angle,1,36,8,90,0.4,6,1.5,comp,down,1.88159852021,1
angle,1,37,8,90,0.0,6,1.0,comp,down,1.30543044439,1
angle,1,38,8,180,0.6,6,-2.0,equ,n,1.44653552895,1
angle,1,39,8,0,0.2,6,1.5,equ,n,1.31717128278,1
angle,1,40,8,180,0.4,6,0.5,comp,right,2.71662042313,1
angle,1,41,8,270,0.8,6,-2.0,equ,n,1.9637889884,1
angle,1,42,8,0,0.2,6,1.0,equ,n,1.62290950639,1
angle,1,43,8,90,0.6,6,-0.5,equ,n,1.43475942818,1
angle,1,44,8,180,0.2,6,0.5,comp,left,1.6934599406,1
angle,1,45,8,180,0.4,6,1.5,equ,n,5.64495194159,1
angle,1,46,8,90,0.8,6,1.5,comp,down,1.68171718577,1
angle,1,47,8,90,0.4,6,0.5,equ,n,1.28183493145,1
angle,1,48,8,90,0.6,6,-1.5,comp,down,2.7283589618,1
angle,1,49,8,180,0.0,6,1.5,equ,n,1.44650984875,1
angle,1,50,8,90,0.0,6,-1.0,equ,n,1.66993801871,1
angle,1,51,8,90,0.6,6,1.0,equ,m,1.34065679243,1
angle,1,52,8,270,0.6,6,-1.5,equ,n,1.3877244,1
angle,1,53,8,270,0.4,6,1.5,comp,down,1.2818506462,1
angle,1,54,8,90,0.6,6,-1.0,comp,up,2.02279865988,1
angle,1,55,8,90,0.2,6,-0.5,comp,down,1.12897329373,1
angle,1,56,8,180,0.4,6,-2.0,equ,m,1.19951299591,1
angle,1,57,8,180,0.0,6,0.5,comp,left,2.16389301241,1
angle,1,58,8,180,0.2,6,-2.0,comp,left,2.21090542669,1
angle,1,59,8,0,0.6,6,-1.0,comp,left,1.37597896216,1
angle,1,60,8,0,0.4,6,-2.0,equ,n,3.21055816893,1
angle,1,61,8,180,0.2,6,1.0,equ,m,0.976091725108,1
angle,1,62,8,270,0.4,6,-0.5,comp,up,2.12861453737,1
angle,1,63,8,0,0.6,6,-1.5,equ,n,1.3288795418,1
angle,1,64,8,180,0.0,6,0.0,comp,right,1.6229064401,1
angle,1,65,8,90,0.8,6,0.5,equ,m,1.21132435906,1
angle,1,66,8,270,0.6,6,-1.0,equ,n,2.19915730585,1
angle,1,67,8,180,0.4,6,2.0,comp,right,1.48180480511,1
angle,1,68,8,0,0.2,6,2.0,equ,n,1.2701243727,1
angle,1,69,8,90,0.6,6,0.0,comp,up,4.15134727194,1
angle,1,70,8,180,0.8,6,1.0,comp,right,1.29361908124,1
angle,1,71,8,90,0.0,6,-0.5,equ,n,1.54061823379,1
angle,1,72,8,90,0.4,6,1.0,comp,down,1.66995679975,1
angle,1,73,8,180,0.2,6,0.0,comp,right,1.95220606413,1
angle,1,74,8,0,0.8,6,0.0,comp,left,1.22307976235,1
angle,1,75,8,90,0.8,6,2.0,comp,down,2.03449618687,1
angle,1,76,8,270,0.0,6,-1.5,equ,n,1.258375102,1
angle,1,77,8,180,0.4,6,-0.5,comp,right,1.30536413578,1
angle,1,78,8,270,0.8,6,0.5,equ,m,1.23480335284,1
angle,1,79,8,270,0.2,6,1.0,equ,n,1.34065832558,1
angle,1,80,8,270,0.0,6,0.5,comp,up,1.5993906508,1
angle,1,81,8,90,0.0,6,-0.5,comp,down,2.36381229223,1
angle,1,82,8,90,0.6,6,2.0,comp,down,1.17606428178,1
angle,1,83,8,0,0.0,6,0.5,equ,n,1.19955975689,1
angle,1,84,8,270,0.0,6,-2.0,equ,n,0.952575169231,1
angle,1,85,8,270,0.0,6,0.0,equ,m,1.17615512073,1
angle,1,86,8,270,0.8,6,-1.5,comp,down,1.72876677886,1
angle,1,87,8,270,0.6,6,1.0,comp,down,1.28190622277,1
angle,1,88,8,90,0.6,6,1.5,equ,m,1.98750753637,1
angle,1,89,8,270,0.4,6,2.0,comp,down,1.15248946632,1
angle,1,90,8,270,0.8,6,2.0,equ,n,1.0937638103,1
angle,1,91,8,0,0.0,6,-1.5,equ,n,1.25835862067,1
angle,1,92,8,270,0.8,6,1.5,equ,m,0.846738210963,1
angle,1,93,8,270,0.0,6,1.5,comp,up,2.06983407135,1
angle,1,94,8,270,0.4,6,0.5,equ,n,1.37596401398,1
angle,1,95,8,0,0.4,6,0.0,equ,n,1.0936860031,1
angle,1,96,8,90,0.2,6,-2.0,comp,down,2.88125931147,1
angle,1,97,8,90,0.8,6,0.0,equ,n,0.740886304513,1
angle,1,98,8,90,0.0,6,0.0,equ,n,1.85812680887,1
angle,1,99,8,90,0.0,6,-1.5,comp,up,1.211190592,1
angle,1,100,8,0,0.8,6,-1.5,equ,n,0.929034849578,1
angle,1,101,8,90,0.8,6,0.0,comp,up,1.09369328555,1
angle,1,102,8,90,0.6,6,-2.0,comp,up,1.78755797691,1
angle,1,103,8,0,0.8,6,-1.0,equ,n,0.952588200977,1
angle,1,104,8,270,0.0,6,-1.0,comp,down,3.53981793115,1
angle,1,105,8,270,0.2,6,0.5,comp,up,5.31568336378,1
angle,1,106,8,90,0.6,6,0.5,equ,n,0.764407459832,1
angle,1,107,8,180,0.2,6,-0.5,comp,left,1.38768798776,1
angle,1,108,8,0,0.4,6,1.0,comp,right,2.0110428733,1
angle,1,109,8,270,0.0,6,1.0,comp,down,1.28191005564,1
angle,1,110,8,0,0.8,6,1.5,comp,right,1.27012820557,1
angle,1,111,8,270,0.2,6,-0.5,equ,n,1.42298984329,1
angle,1,112,8,180,0.0,6,2.0,equ,n,0.881987939501,1
angle,1,113,8,0,0.4,6,-2.0,comp,left,1.19954404213,1
angle,1,114,8,0,0.6,6,2.0,equ,n,1.12890276898,1
angle,1,115,8,180,0.4,6,-1.0,equ,m,0.834988556973,1
angle,1,116,8,0,0.2,6,0.5,equ,n,1.76402992243,1
angle,1,117,8,90,0.8,6,-0.5,equ,n,0.917317774962,1
angle,1,118,8,0,0.8,6,-0.5,comp,right,1.48181247085,1
angle,1,119,8,180,0.8,6,0.0,equ,m,2.62256109877,1
angle,1,120,8,180,0.6,6,-0.5,equ,m,0.976125454337,1
angle,1,121,8,0,0.0,6,-0.5,comp,left,1.08194631456,1
angle,1,122,8,0,0.6,6,0.5,comp,right,1.24660896669,1
angle,1,123,8,0,0.6,6,2.0,comp,right,1.04664407575,1
angle,1,124,8,270,0.8,6,-2.0,comp,down,1.14071719842,1
angle,1,125,8,180,0.2,6,0.0,equ,m,3.86914170225,1
angle,1,126,8,90,0.0,6,0.5,equ,n,0.764387528925,1
angle,1,127,8,270,0.6,6,-1.5,comp,down,1.99923955917,1
angle,1,128,8,270,0.2,6,1.5,comp,up,2.08156801058,1
angle,1,129,8,0,0.6,6,0.0,equ,n,0.846722496211,1
angle,1,130,8,270,0.8,6,-1.0,comp,down,1.18778250626,1
angle,1,131,8,270,0.0,6,2.0,equ,n,0.882021285444,1
angle,1,132,8,0,0.4,6,-1.5,comp,left,1.35238919852,1
angle,1,133,8,90,0.8,6,-0.5,comp,down,1.08195014743,1
angle,1,134,8,90,0.0,6,-2.0,comp,down,1.2818882083,1
angle,1,135,8,180,0.2,6,0.5,equ,n,2.31672130419,1
angle,1,136,8,0,0.0,6,-2.0,equ,n,0.940790252866,1
angle,1,137,8,270,0.0,6,-1.0,equ,n,0.811475833962,1
angle,1,138,8,90,0.2,6,-1.5,equ,n,1.57587409492,1
angle,1,139,8,90,0.6,6,-1.0,equ,n,1.32890790502,1
angle,1,140,8,270,0.6,6,0.0,comp,down,1.12898555891,1
angle,1,141,8,90,0.4,6,0.0,comp,down,2.91654276924,1
angle,1,142,8,180,0.6,6,1.5,equ,n,0.764437739483,1
angle,1,143,8,90,0.8,6,-1.5,equ,n,1.07018286226,1
angle,1,144,8,180,0.2,6,-2.0,equ,n,0.95260889846,1
angle,1,145,8,180,0.2,6,-0.5,equ,m,1.24658366976,1
angle,1,146,8,0,0.4,6,-1.0,equ,m,1.42297949454,1
angle,1,147,8,90,0.8,6,-1.5,comp,down,2.32854186621,1
angle,1,148,8,180,0.4,6,2.0,equ,n,1.5641455217,1
angle,1,149,8,90,0.0,6,2.0,equ,n,0.893795086497,1
angle,1,150,8,180,0.8,6,0.5,equ,n,1.29341095655,1
angle,1,151,8,90,0.6,6,-0.5,comp,up,1.6464195464,1
angle,1,152,8,270,0.4,6,-2.0,comp,down,0.776174745006,1
angle,1,153,8,0,0.8,6,2.0,comp,right,0.952583984825,1
angle,1,154,8,90,0.0,6,1.5,equ,n,1.07016599764,1
angle,1,155,8,180,0.2,6,1.5,equ,n,0.670333187303,1
angle,1,156,8,270,0.2,6,2.0,equ,n,0.658568968418,1
angle,1,157,8,180,0.6,6,0.0,comp,right,1.21128373067,1
angle,1,158,8,0,0.8,6,1.0,equ,n,2.88127157665,1
angle,1,159,8,180,0.8,6,-2.0,comp,right,0.893777072019,1
angle,1,160,8,90,0.4,6,2.0,equ,n,3.28113083377,1
angle,1,161,8,90,0.6,6,0.0,equ,n,0.776149448087,1
angle,1,162,8,270,0.2,6,-1.5,comp,down,0.987884690494,1
angle,1,163,8,180,0.4,6,-1.5,equ,n,2.35206263825,1
angle,1,164,8,0,0.0,6,-2.0,comp,left,1.50526961728,1
angle,1,165,8,180,0.0,6,1.0,comp,right,1.44651329832,1
angle,1,166,8,180,0.8,6,-0.5,equ,n,1.08194324827,1
angle,1,167,8,90,0.4,6,2.0,comp,up,2.01102754183,1
angle,1,168,8,180,0.0,6,2.0,comp,left,1.48178985693,1
angle,1,169,8,90,0.0,6,-1.5,equ,n,1.82281728761,1
angle,1,170,8,0,0.4,6,1.5,equ,n,0.752656655986,1
angle,1,171,8,270,0.2,6,-2.0,comp,down,0.91729094489,1
angle,1,172,8,270,0.2,6,1.5,equ,m,1.03491205295,1
angle,1,173,8,90,0.2,6,2.0,comp,up,1.62289839108,1
angle,1,174,8,180,0.6,6,0.5,equ,n,0.929079694124,1
angle,1,175,8,90,0.0,6,-2.0,equ,n,0.776171295431,1
angle,1,176,8,0,0.0,6,1.5,comp,right,1.11721942359,1
angle,1,177,8,0,0.0,6,1.0,comp,right,1.71699489424,1
angle,1,178,8,0,0.6,6,-0.5,comp,left,1.10543604037,1
angle,1,179,8,270,0.4,6,-1.5,comp,down,0.846749709566,1
angle,1,180,8,270,0.0,6,0.5,equ,m,1.19957585493,1
angle,1,181,8,90,0.2,6,0.5,equ,m,0.740884771367,1
angle,1,182,8,180,0.8,6,-1.5,comp,left,1.59939793324,1
angle,1,183,8,180,0.0,6,-1.5,equ,n,1.34064836012,1
angle,1,184,8,0,0.8,6,1.5,equ,n,1.11718952723,1
angle,1,185,8,0,0.2,6,-0.5,comp,right,1.03485800952,1
angle,1,186,8,180,0.8,6,-1.0,comp,left,1.50529414763,1
angle,1,187,8,180,0.4,6,1.0,comp,left,0.78790063522,1
angle,1,188,8,270,0.2,6,-1.0,comp,up,1.48180327197,1
angle,1,189,8,180,0.4,6,0.0,equ,n,2.4932056682,1
angle,1,190,8,270,0.2,6,2.0,comp,up,1.15250518108,1
angle,1,191,8,180,0.2,6,-1.0,comp,right,1.08192446722,1
angle,1,192,8,90,0.8,6,-1.0,comp,up,1.72875528025,1
angle,1,193,8,90,0.0,6,1.0,equ,m,1.03489863791,1
angle,1,194,8,0,0.2,6,1.5,comp,left,1.23496548311,1
angle,1,195,8,270,0.2,6,-1.0,equ,n,0.752674287174,1
angle,1,196,8,90,0.0,6,0.5,comp,up,0.752619860461,1
angle,1,197,8,270,0.4,6,0.0,equ,n,0.717374348078,1
angle,1,198,8,90,0.4,6,-1.5,comp,up,0.917295544332,1
angle,1,199,8,0,0.4,6,0.0,comp,right,1.5642493924,1
angle,1,200,8,180,0.6,6,-2.0,comp,left,1.16424908577,1
angle,1,201,8,90,0.2,6,-1.0,equ,n,0.670312489819,1
angle,1,202,8,270,0.8,6,-1.0,equ,n,0.964350503426,1
angle,1,203,8,0,0.6,6,1.0,comp,right,1.34067480691,1
angle,1,204,8,0,0.4,6,2.0,comp,right,1.70524868983,1
angle,1,205,8,180,0.2,6,-1.5,comp,right,1.10547053618,1
angle,1,206,8,0,0.6,6,1.0,equ,n,4.15138713376,1
angle,1,207,8,180,0.8,6,-1.0,equ,n,0.740864840456,1
angle,1,208,8,0,0.2,6,-2.0,equ,n,0.623265196453,1
angle,1,209,8,90,0.2,6,1.0,equ,n,1.5288455826,1
angle,1,210,8,180,0.6,6,-1.0,equ,n,0.964347820423,1
angle,1,211,8,270,0.2,6,0.0,equ,m,0.834981657812,1
angle,1,212,8,180,0.8,6,0.5,comp,right,2.29321011432,1
angle,1,213,8,270,0.0,6,2.0,comp,up,1.02317964686,1
angle,1,214,8,90,0.6,6,0.5,comp,down,1.15252396213,1
angle,1,215,8,270,0.6,6,-2.0,comp,up,0.823236986555,1
angle,1,216,8,180,0.0,6,-0.5,comp,left,0.905530942164,1
angle,1,217,8,270,0.8,6,0.5,comp,up,0.952596633288,1
angle,1,218,8,0,0.4,6,1.5,comp,right,0.764418575145,1
angle,1,219,8,270,0.4,6,-2.0,equ,n,1.25834673878,1
angle,1,220,8,180,0.8,6,2.0,comp,left,1.71700984242,1
angle,1,221,8,180,0.6,6,0.5,comp,right,0.987852877697,1
angle,1,222,8,180,0.6,6,-0.5,comp,right,1.23483018291,1
angle,1,223,8,90,0.6,6,2.0,equ,n,0.76441359242,1
angle,1,224,8,90,0.2,6,1.5,comp,up,1.02311717113,1
angle,1,225,8,0,0.2,6,1.0,comp,right,1.17603170241,1
angle,1,226,8,270,0.8,6,1.0,comp,up,2.02277029666,1
angle,1,227,8,180,0.2,6,1.5,comp,left,0.85849744712,1
angle,1,228,8,0,0.4,6,0.5,comp,left,0.8702444181,1
angle,1,229,8,0,0.6,6,-2.0,comp,right,0.846732844948,1
angle,1,230,8,90,0.0,6,2.0,comp,down,0.917277529854,1
angle,1,231,8,90,0.2,6,-1.5,comp,up,0.999612113854,1
angle,1,232,8,90,0.2,6,-0.5,equ,n,0.999615563433,1
angle,1,233,8,270,0.6,6,2.0,comp,down,1.39947175426,1
angle,1,234,8,180,0.8,6,1.5,equ,n,1.94042191434,1
angle,1,235,8,90,0.8,6,1.0,equ,n,0.77616286312,1
angle,1,236,8,90,0.8,6,-1.0,equ,n,0.787927848574,1
angle,1,237,8,90,0.6,6,-1.5,equ,n,1.39946102223,1
angle,1,238,8,0,0.8,6,-0.5,equ,n,0.705661489614,1
angle,1,239,8,180,0.8,6,0.0,comp,right,1.51707753085,1
angle,1,240,8,90,0.4,6,-1.5,equ,n,0.964333638814,1
angle,1,241,8,270,0.2,6,-2.0,equ,n,0.917241884192,1
angle,1,242,8,180,0.0,6,-1.5,comp,right,0.729108287309,1
angle,1,243,8,270,0.8,6,1.5,comp,up,0.740894736824,1
angle,1,244,8,270,0.0,6,1.5,equ,m,1.12896064527,1
angle,1,245,8,180,0.4,6,0.5,equ,m,0.729153515142,1
angle,1,246,8,270,0.6,6,1.5,equ,n,0.776171295431,1
angle,1,247,8,270,0.4,6,0.0,comp,up,0.83497284221800006,1
angle,1,248,8,270,0.6,6,1.5,comp,up,1.37599237719,1
angle,1,249,8,180,0.6,6,2.0,comp,left,0.71744142325,1
angle,1,250,8,270,0.8,6,0.0,equ,n,2.48139622148,1
angle,1,251,8,0,0.2,6,-2.0,comp,left,1.44647688609,1
angle,1,252,8,0,0.8,6,0.5,equ,n,2.63433719955,1
angle,1,253,8,180,0.2,6,-1.0,equ,m,0.799670986693,1
angle,1,254,8,90,0.6,6,1.5,comp,up,1.21129982871,1
angle,1,255,8,0,0.6,6,0.5,equ,m,1.52886129736,1
angle,1,256,8,90,0.0,6,1.5,comp,up,0.917273696989,1
angle,1,257,8,0,0.6,6,1.5,comp,right,0.823163012217,1
angle,1,258,8,0,0.2,6,-1.0,equ,n,2.22269839207,1
angle,1,259,8,270,0.2,6,0.5,equ,n,1.39944569076,1
angle,1,260,8,0,0.2,6,-1.0,comp,right,0.740898569689,1
angle,1,261,8,90,0.6,6,1.0,comp,down,5.30394904126,1
angle,1,262,8,0,0.0,6,1.0,equ,n,1.84636488971,1
angle,1,263,8,0,0.0,6,0.5,comp,right,0.658575101006,1
angle,1,264,8,0,0.4,6,-1.0,comp,left,0.564460200083,1
angle,1,265,8,180,0.6,6,1.5,comp,right,0.823200191029,1
angle,1,266,8,270,0.8,6,2.0,comp,down,1.09377339247,1
angle,1,267,8,90,0.8,6,1.5,equ,n,1.37594906579,1
angle,1,268,8,0,0.2,6,0.5,comp,right,0.752642091091,1
angle,1,269,8,180,0.4,6,-2.0,comp,right,0.799679802287,1
angle,1,270,8,90,0.4,6,0.0,equ,n,1.84634534209,1
angle,1,271,8,0,0.0,6,0.0,comp,left,0.823220888513,1
angle,1,272,8,180,0.2,6,1.0,comp,right,0.999617863155,1
angle,1,273,8,90,0.2,6,0.0,comp,up,1.963964917,1
angle,1,274,8,90,0.0,6,-1.0,comp,down,0.87024556796,1
angle,1,275,8,180,0.0,6,-2.0,comp,left,0.905536308175,1
angle,1,276,8,180,0.4,6,0.0,comp,left,0.764399410811,1
angle,1,277,8,90,0.8,6,0.5,comp,down,0.964342837695,1
angle,1,278,8,0,0.4,6,-0.5,equ,n,0.752637491649,1
angle,1,279,8,0,0.0,6,-1.0,equ,n,0.776171295427,1
angle,1,280,8,180,0.6,6,-1.5,equ,n,0.6114396517,1
angle,1,281,8,270,0.4,6,-1.0,equ,n,0.658597331636,1
angle,1,282,8,0,0.4,6,-0.5,comp,left,0.90549836279,1
angle,1,283,8,180,0.0,6,1.5,comp,right,0.882021668731,1
angle,1,284,8,90,0.4,6,-2.0,comp,up,0.611530107362,1
angle,1,285,8,270,0.8,6,-1.5,equ,n,0.611554637711,1
angle,1,286,8,270,0.6,6,0.5,comp,down,1.16426518381,1
angle,1,287,8,90,0.2,6,-1.0,comp,down,0.834977058374,1
angle,1,288,8,270,0.0,6,1.0,equ,n,1.88164566447,1
angle,1,289,8,90,0.4,6,1.5,equ,n,0.623289343519,1
angle,1,290,8,0,0.6,6,-1.5,comp,right,0.811425623404,1
angle,1,291,8,180,0.8,6,-1.5,equ,n,0.987871658745,1
angle,1,292,8,270,0.6,6,-0.5,comp,down,0.881984106632,1
angle,1,293,8,270,0.2,6,-1.5,equ,n,0.764435439763,1
angle,1,294,8,270,0.4,6,-0.5,equ,n,0.599766271767,1
angle,1,295,8,0,0.8,6,1.0,comp,right,0.646807432542,1
angle,1,296,8,90,0.2,6,0.0,equ,n,0.740915051018,1
angle,1,297,8,90,0.4,6,-0.5,equ,n,1.22306711389,1
angle,1,298,8,270,0.4,6,1.0,comp,up,0.987876641473,1
angle,1,299,8,270,0.8,6,1.0,equ,m,1.39947367069,1
angle,1,300,8,180,0.4,6,1.0,equ,n,0.74092884934,1
angle,1,301,8,0,0.0,6,2.0,equ,n,0.611573035472,1
angle,1,302,8,180,0.0,6,-1.0,comp,left,1.10562883359,1
angle,1,303,8,0,0.2,6,-1.5,comp,right,0.858483265511,1
angle,1,304,8,0,0.6,6,-2.0,equ,n,0.623326522331,1
angle,1,305,8,270,0.6,6,0.5,equ,m,0.929053247339,1
angle,1,306,8,270,0.0,6,-0.5,equ,n,0.870268948449,1
angle,1,307,8,180,0.8,6,1.0,equ,n,1.16428856429,1
angle,1,308,8,180,0.4,6,1.5,comp,right,0.787958511515,1
angle,1,309,8,270,0.6,6,-1.0,comp,down,0.882015536143,1
angle,1,310,8,180,0.8,6,2.0,equ,n,0.764406309972,1
angle,1,311,8,270,0.4,6,1.5,equ,n,0.717367448917,1
angle,1,312,8,180,0.2,6,-1.5,equ,m,0.882043132788,1
angle,1,313,8,180,0.6,6,-1.5,comp,left,1.0349047705,1
angle,1,314,8,270,0.4,6,1.0,equ,n,1.36418638006,1
angle,1,315,8,180,0.2,6,2.0,equ,n,0.95259816643,1
angle,1,316,8,90,0.4,6,-2.0,equ,n,0.693846676884,1
angle,1,317,8,0,0.0,6,-1.5,comp,left,0.764413975707,1
angle,1,318,8,270,0.6,6,0.0,equ,n,0.635016383592,1
angle,1,319,8,270,0.2,6,-0.5,comp,down,0.787971159978,1
angle,1,320,8,270,0.0,6,0.0,comp,up,0.705623160942,1
angle,1,321,8,90,0.8,6,1.0,comp,down,0.964354336294,1
angle,1,322,8,270,0.2,6,0.0,comp,up,1.10547053617,1
angle,1,323,8,270,0.6,6,-2.0,equ,m,0.99963319462,1
angle,1,324,8,0,0.2,6,0.0,comp,left,0.787951229067,1
angle,1,325,8,270,0.8,6,-0.5,comp,down,1.25837356886,1
angle,1,326,8,270,0.4,6,-1.5,equ,n,0.670321305413,1
angle,1,327,8,0,0.2,6,-0.5,equ,n,0.834994689561,1
angle,1,328,8,180,0.2,6,2.0,comp,left,0.823241969279,1
angle,1,329,8,270,0.6,6,1.0,equ,n,1.10546517016,1
angle,1,330,8,0,0.4,6,-1.5,equ,n,0.564510410641,1
angle,1,331,8,0,0.8,6,0.5,comp,right,0.823205557044,1
angle,1,332,8,0,0.6,6,-0.5,equ,n,1.22284864046,1
angle,1,333,8,270,0.8,6,-0.5,equ,n,0.658572801287,1
angle,1,334,8,0,0.4,6,1.0,equ,n,0.952605065595,1
angle,1,335,8,270,0.0,6,-2.0,comp,down,0.882022052017,1
angle,1,336,8,270,0.4,6,0.5,comp,up,1.10545482142,1
angle,1,337,8,270,0.2,6,1.0,comp,up,1.0113717333,1
angle,1,338,8,0,0.8,6,2.0,equ,n,1.0701671475,1
angle,1,339,8,90,0.2,6,1.0,comp,up,0.799690534313,1
angle,1,340,8,0,0.0,6,-0.5,equ,n,0.882028951179,1
angle,1,341,8,0,0.8,6,-2.0,comp,left,0.729133967521,1
angle,1,342,8,180,0.8,6,1.5,comp,left,1.32888989054,1
angle,1,343,8,270,0.0,6,-1.5,comp,down,1.97574408407,1
angle,1,344,8,180,0.4,6,-1.5,comp,right,0.787936664172,1
angle,1,345,8,0,0.8,6,-1.5,comp,right,0.846689916838,1
angle,1,346,8,90,0.8,6,2.0,equ,n,0.611524358061,1
angle,1,347,8,180,0.6,6,1.0,equ,n,0.68212461954,1
angle,1,348,8,0,0.6,6,-1.0,equ,n,0.729132434371,1
angle,1,349,8,270,0.4,6,-1.0,comp,up,0.799714298089,1
angle,1,350,8,0,0.6,6,1.5,equ,n,0.670312873106,1
angle,1,351,8,0,0.4,6,0.5,equ,n,0.576266963792,1
angle,1,352,8,0,0.8,6,-2.0,equ,n,0.65854213835,1
angle,1,353,8,0,0.0,6,-1.0,comp,left,1.18778595584,1
angle,1,354,8,270,0.6,6,2.0,equ,m,1.1054843345,1
angle,1,355,8,180,0.0,6,1.0,equ,m,0.776167845848,1
angle,1,356,8,0,0.8,6,-1.0,comp,left,4.76294752077,1
angle,1,357,8,90,0.4,6,-1.0,equ,m,0.952603149162,1
angle,1,358,8,180,0.0,6,-1.0,equ,m,1.28183454816,1
angle,1,359,8,180,0.6,6,1.0,comp,right,0.811470851237,1
angle,1,360,8,0,0.0,6,1.5,equ,m,1.48179100679,1
angle,2,1,8,0,0.8,6,-2.0,comp,left,2.28148307425,1
angle,2,2,8,270,0.0,6,-0.5,equ,n,0.964320223778,1
angle,2,3,8,180,0.8,6,0.0,equ,n,0.705580999405,1
angle,2,4,8,0,0.0,6,-1.0,equ,n,0.72914929899,1
angle,2,5,8,0,0.4,6,0.5,comp,right,0.599769721346,1
angle,2,6,8,270,0.2,6,2.0,equ,n,0.787925548859,1
angle,2,7,8,270,0.6,6,0.0,equ,n,0.740855258289,1
angle,2,8,8,0,0.6,6,-0.5,comp,left,0.987861693291,1
angle,2,9,8,0,0.0,6,-1.5,comp,left,1.0231497505,1
angle,2,10,8,90,0.6,6,0.5,equ,n,2.52847226135,1
angle,2,11,8,90,0.0,6,0.5,comp,down,1.01137901574,1
angle,2,12,8,90,0.0,6,-1.5,comp,up,0.705625460661,1
angle,2,13,8,90,0.4,6,0.0,equ,n,0.635063527858,1
angle,2,14,8,0,0.6,6,1.0,equ,n,1.37590882069,1
angle,2,15,8,90,0.2,6,-2.0,equ,n,0.776185860323,1
angle,2,16,8,180,0.0,6,-0.5,comp,right,1.10544063981,1
angle,2,17,8,0,0.6,6,0.0,comp,left,0.776169762281,1
angle,2,18,8,90,0.4,6,0.5,comp,up,0.870256683276,1
angle,2,19,8,90,0.6,6,1.5,equ,n,0.623265579743,1
angle,2,20,8,270,0.4,6,-0.5,comp,down,0.776162479837,1
angle,2,21,8,90,0.4,6,0.5,equ,n,0.764401710534,1
angle,2,22,8,0,0.6,6,1.0,comp,right,0.917316241812,1
angle,2,23,8,180,0.4,6,-1.5,comp,right,0.764411292697,1
angle,2,24,8,90,0.0,6,2.0,comp,up,3.0576712343,1
angle,2,25,8,90,0.8,6,-1.0,equ,n,0.623264429883,1
angle,2,26,8,0,0.2,6,-0.5,equ,n,1.07017787953,1
angle,2,27,8,180,0.4,6,-2.0,comp,left,0.799683251866,1
angle,2,28,8,0,0.0,6,-0.5,equ,n,1.52879920491,1
angle,2,29,8,270,0.0,6,0.0,comp,up,0.893779755028,1
angle,2,30,8,270,0.2,6,-1.0,comp,up,0.799719280814,1
angle,2,31,8,0,0.0,6,-0.5,comp,left,0.740933832065,1
angle,2,32,8,90,0.8,6,2.0,comp,up,0.870230619777,1
angle,2,33,8,180,0.4,6,-2.0,equ,n,0.799714298089,1
angle,2,34,8,90,0.6,6,1.0,comp,up,0.682065210101,1
angle,2,35,8,90,0.6,6,-1.5,equ,n,0.917300910343,1
angle,2,36,8,0,0.4,6,-0.5,comp,left,0.658570118278,1
angle,2,37,8,90,0.6,6,-1.0,comp,up,1.32892323649,1
angle,2,38,8,0,0.2,6,1.5,equ,n,0.834970159216,1
angle,2,39,8,270,0.0,6,-1.5,comp,down,1.18778787227,1
angle,2,40,8,180,0.6,6,2.0,comp,left,0.858492464391,1
angle,2,41,8,270,0.2,6,0.5,comp,down,1.68173979969,1
angle,2,42,8,90,0.2,6,-1.0,equ,n,1.50529184791,1
angle,2,43,8,180,0.6,6,-1.0,equ,n,0.76439136179,1
angle,2,44,8,180,0.8,6,-1.0,equ,n,0.670374198977,1
angle,2,45,8,180,0.2,6,-0.5,comp,right,2.19916612144,1
angle,2,46,8,180,0.6,6,0.5,comp,left,1.11722632275,1
angle,2,47,8,180,0.0,6,1.0,equ,n,0.682101239054,1
angle,2,48,8,270,0.8,6,2.0,equ,n,0.799656421797,1
angle,2,49,8,270,0.4,6,0.5,comp,up,1.94044261182,1
angle,2,50,8,90,0.0,6,1.0,comp,down,1.57589670883,1
angle,2,51,8,270,0.2,6,2.0,comp,up,0.95256597035,1
angle,2,52,8,90,0.8,6,-2.0,comp,down,1.97578164616,1
angle,2,53,8,0,0.8,6,0.0,equ,n,0.70561894479,1
angle,2,54,8,180,0.6,6,1.0,comp,left,2.15207321696,1
angle,2,55,8,270,0.4,6,0.0,equ,n,0.834971309076,1
angle,2,56,8,180,0.2,6,2.0,equ,m,1.1054525217,1
angle,2,57,8,90,0.8,6,0.0,comp,up,0.882010553418,1
angle,2,58,8,90,0.0,6,-2.0,equ,n,0.623265196456,1
angle,2,59,8,90,0.8,6,-1.0,comp,up,0.97609517469,1
angle,2,60,8,0,0.8,6,0.0,comp,right,1.04666132365,1
angle,2,61,8,90,0.2,6,1.5,comp,down,1.10545482142,1
angle,2,62,8,90,0.4,6,1.0,equ,n,2.49314817519,1
angle,2,63,8,270,0.4,6,-1.5,comp,up,0.70566302276,1
angle,2,64,8,270,0.4,6,-0.5,equ,n,0.764388295498,1
angle,2,65,8,90,0.6,6,-2.0,comp,up,0.75287129654,1
angle,2,66,8,0,0.8,6,-0.5,comp,right,2.32851426957,1
angle,2,67,8,0,0.6,6,-1.0,comp,left,0.729140866679,1
angle,2,68,8,0,0.0,6,2.0,equ,m,0.940834714125,1
angle,2,69,8,270,0.8,6,-1.5,comp,up,1.55249858855,1
angle,2,70,8,180,0.4,6,1.0,equ,n,2.01098768002,1
angle,2,71,8,0,0.6,6,2.0,comp,right,0.599791568689,1
angle,2,72,8,90,0.2,6,2.0,comp,up,0.623316556874,1
angle,2,73,8,90,0.2,6,-1.5,comp,up,0.870257066563,1
angle,2,74,8,270,0.2,6,-1.5,equ,n,0.599760522466,1
angle,2,75,8,90,0.8,6,2.0,equ,n,0.646781369043,1
angle,2,76,8,270,0.6,6,2.0,equ,n,0.682126919262,1
angle,2,77,8,270,0.0,6,1.0,equ,n,0.623282061071,1
angle,2,78,8,180,0.4,6,0.0,comp,left,0.999619013015,1
angle,2,79,8,270,0.6,6,0.5,comp,down,2.05801772548,1
angle,2,80,8,180,0.2,6,-1.5,equ,n,0.776173978436,1
angle,2,81,8,270,0.2,6,-1.0,equ,n,0.564456750504,1
angle,2,82,8,180,0.4,6,0.5,comp,right,0.858498596979,1
angle,2,83,8,270,0.4,6,0.5,equ,n,1.92870330657,1
angle,2,84,8,0,0.2,6,1.0,comp,left,0.893798536075,1
angle,2,85,8,90,0.2,6,0.0,equ,n,1.411237123,1
angle,2,86,8,180,0.0,6,1.0,comp,right,0.905527109295,1
angle,2,87,8,90,0.2,6,1.0,comp,down,0.964363151888,1
angle,2,88,8,180,0.6,6,-2.0,equ,n,0.799705482495,1
angle,2,89,8,270,0.8,6,-1.0,equ,n,0.893728394607,1
angle,2,90,8,0,0.4,6,0.0,equ,n,0.62328666051,1
angle,2,91,8,90,0.6,6,0.5,comp,down,0.999617863155,1
angle,2,92,8,180,0.6,6,-2.0,comp,left,0.929041365453,1
angle,2,93,8,180,0.8,6,-2.0,equ,m,1.19956129004,1
angle,2,94,8,90,0.8,6,-2.0,equ,n,0.8467255625,1
angle,2,95,8,90,0.8,6,0.0,equ,m,1.46983552784,1
angle,2,96,8,180,0.4,6,-0.5,equ,m,0.90555432265,1
angle,2,97,8,0,0.0,6,1.5,comp,right,0.940836247271,1
angle,2,98,8,90,0.8,6,-0.5,equ,n,1.705206145,1
angle,2,99,8,0,0.8,6,-0.5,equ,n,0.71733410297,1
angle,2,100,8,270,0.8,6,0.0,comp,up,1.32893473509,1
angle,2,101,8,90,0.0,6,-1.0,comp,up,0.811471234523,1
angle,2,102,8,270,0.4,6,1.0,comp,up,2.43433704623,1
angle,2,103,8,270,0.4,6,0.0,comp,down,1.1054670866,1
angle,2,104,8,180,0.6,6,0.5,equ,m,0.881984873209,1
angle,2,105,8,270,0.8,6,1.0,equ,m,1.16429354702,1
angle,2,106,8,270,0.6,6,-1.5,comp,up,0.799695517038,1
angle,2,107,8,90,0.4,6,-1.0,comp,down,1.07015181603,1
angle,2,108,8,180,0.8,6,0.5,comp,right,0.97611587217,1
angle,2,109,8,0,0.0,6,-2.0,equ,m,1.78758020754,1
angle,2,110,8,180,0.6,6,-1.0,comp,left,0.811457052914,1
angle,2,111,8,90,0.2,6,-0.5,equ,n,2.32852078545,1
angle,2,112,8,270,0.2,6,0.5,equ,m,1.94045027756,1
angle,2,113,8,0,0.0,6,0.0,equ,m,0.85852734348,1
angle,2,114,8,0,0.8,6,-1.0,equ,n,0.729111736891,1
angle,2,115,8,0,0.0,6,1.0,equ,m,0.834991623269,1
angle,2,116,8,0,0.4,6,-2.0,comp,left,0.752630975774,1
angle,2,117,8,0,0.4,6,-1.5,comp,left,0.917293627896,1
angle,2,118,8,270,0.2,6,1.5,comp,up,0.858490931245,1
angle,2,119,8,90,0.0,6,0.0,equ,m,0.917268330973,1
angle,2,120,8,270,0.8,6,2.0,comp,up,0.635084608624,1
angle,2,121,8,0,0.2,6,1.0,equ,n,0.64678098576,1
angle,2,122,8,180,0.6,6,1.5,equ,n,0.623318473306,1
angle,2,123,8,270,0.8,6,-0.5,equ,n,1.22309394395,1
angle,2,124,8,90,0.4,6,-2.0,equ,m,0.646790567927,1
angle,2,125,8,90,0.6,6,2.0,equ,n,1.8110798988,1
angle,2,126,8,270,0.6,6,-1.5,equ,n,0.623288576946,1
angle,2,127,8,90,0.4,6,-0.5,comp,up,2.58726499254,1
angle,2,128,8,270,0.8,6,-2.0,comp,down,0.811455136485,1
angle,2,129,8,180,0.6,6,1.0,equ,n,0.858481732364,1
angle,2,130,8,0,0.0,6,0.5,equ,m,0.964350886716,1
angle,2,131,8,270,0.6,6,-2.0,comp,down,1.58767127645,1
angle,2,132,8,90,0.2,6,-1.5,equ,n,0.752654356267,1
angle,2,133,8,0,0.2,6,-0.5,comp,right,0.846757758583,1
angle,2,134,8,90,0.6,6,2.0,comp,up,1.10545290499,1
angle,2,135,8,270,0.6,6,2.0,comp,down,3.46932575652,1
angle,2,136,8,270,0.4,6,-2.0,equ,n,0.787923632426,1
angle,2,137,8,180,0.2,6,-0.5,equ,n,0.776108819697,1
angle,2,138,8,0,0.8,6,0.5,equ,m,0.846727478933,1
angle,2,139,8,180,0.8,6,1.0,comp,left,0.811459352637,1
angle,2,140,8,180,0.8,6,-1.5,comp,left,1.03493543344,1
angle,2,141,8,270,0.2,6,-1.5,comp,up,0.74090776857,1
angle,2,142,8,180,0.6,6,-1.5,equ,n,1.15249981507,1
angle,2,143,8,180,0.4,6,-1.0,comp,left,1.89343479699,1
angle,2,144,8,180,0.6,6,-0.5,equ,n,0.717367832203,1
angle,2,145,8,270,0.0,6,0.5,equ,n,0.729139716819,1
angle,2,146,8,270,0.0,6,-0.5,comp,down,0.929045198318,1
angle,2,147,8,0,0.8,6,-2.0,equ,n,1.02314668421,1
angle,2,148,8,270,0.8,6,1.0,comp,down,1.03490055435,1
angle,2,149,8,90,0.2,6,1.5,equ,n,1.45825413672,1
angle,2,150,8,90,0.6,6,-0.5,equ,m,0.67032437170900006,1
angle,2,151,8,0,0.2,6,-1.5,equ,n,1.19952832738,1
angle,2,152,8,0,0.8,6,-1.0,comp,left,0.964342071122,1
angle,2,153,8,90,0.8,6,0.5,comp,up,0.834952911311,1
angle,2,154,8,270,0.6,6,-1.0,comp,down,0.776146381791,1
angle,2,155,8,270,0.2,6,0.0,comp,up,0.882015152856,1
angle,2,156,8,180,0.0,6,0.5,comp,left,0.823226637815,1
angle,2,157,8,0,0.8,6,1.0,comp,right,0.658569734991,1
angle,2,158,8,0,0.4,6,1.5,equ,n,0.799685168298,1
angle,2,159,8,0,0.8,6,1.5,comp,right,0.693831345416,1
angle,2,160,8,270,0.4,6,-2.0,comp,up,0.940816316361,1
angle,2,161,8,270,0.6,6,0.5,equ,n,1.04665940722,1
angle,2,162,8,90,0.2,6,1.0,equ,n,0.717359016609,1
angle,2,163,8,0,0.8,6,1.5,equ,n,0.5879756061,1
angle,2,164,8,0,0.6,6,0.5,comp,right,0.776163246406,1
angle,2,165,8,180,0.0,6,-1.5,comp,right,0.717393895702,1
angle,2,166,8,180,0.2,6,0.5,comp,left,0.881972608033,1
angle,2,167,8,0,0.6,6,1.5,equ,n,1.85809537936,1
angle,2,168,8,90,0.8,6,-0.5,comp,up,0.858492847678,1
angle,2,169,8,0,0.8,6,-1.5,comp,left,0.717365149198,1
angle,2,170,8,90,0.4,6,-0.5,equ,n,0.646809348975,1
angle,2,171,8,90,0.6,6,-1.0,equ,n,0.576272329807,1
angle,2,172,8,180,0.6,6,1.5,comp,right,0.811431755992,1
angle,2,173,8,0,0.6,6,-1.0,equ,n,1.28184528019,1
angle,2,174,8,270,0.2,6,-2.0,comp,up,0.893759440827,1
angle,2,175,8,180,0.2,6,1.5,equ,n,0.905545507056,1
angle,2,176,8,90,0.2,6,0.5,comp,down,1.17600065619,1
angle,2,177,8,270,0.8,6,0.5,comp,up,0.752676203607,1
angle,2,178,8,0,0.6,6,-1.5,equ,n,1.37593373433,1
angle,2,179,8,180,0.2,6,1.5,comp,left,0.917310492514,1
angle,2,180,8,270,0.0,6,-1.0,equ,n,0.682119636811,1
angle,2,181,8,180,0.2,6,-1.5,comp,right,1.05844892302,1
angle,2,182,8,0,0.2,6,-1.0,comp,right,0.940795618881,1
angle,2,183,8,0,0.2,6,-2.0,comp,left,1.23485318011,1
angle,2,184,8,270,0.8,6,-1.0,comp,down,1.16422953814,1
angle,2,185,8,270,0.8,6,-2.0,equ,n,0.611512859457,1
angle,2,186,8,180,0.8,6,1.5,comp,right,1.22306404759,1
angle,2,187,8,0,0.6,6,0.5,equ,n,2.0816366189,1
angle,2,188,8,90,0.4,6,-2.0,comp,up,0.623241815967,1
angle,2,189,8,270,0.6,6,0.0,comp,down,1.04666324009,1
angle,2,190,8,180,0.2,6,1.0,comp,left,1.36416913216,1
angle,2,191,8,0,0.4,6,-1.5,equ,n,2.32842726349,1
angle,2,192,8,90,0.4,6,0.0,comp,up,0.752676203607,1
angle,2,193,8,0,0.8,6,2.0,comp,right,2.31679029579,1
angle,2,194,8,90,0.2,6,0.5,equ,n,0.623266729603,1
angle,2,195,8,90,0.6,6,0.0,comp,down,1.01136560071,1
angle,2,196,8,180,0.2,6,-2.0,equ,m,1.03490093763,1
angle,2,197,8,90,0.0,6,0.0,comp,down,1.08199307554,1
angle,2,198,8,180,0.0,6,0.0,comp,left,1.25837778501,1
angle,2,199,8,0,0.0,6,2.0,comp,right,0.83495521103,1
angle,2,200,8,180,0.0,6,-2.0,comp,right,1.12895834555,1
angle,2,201,8,270,0.4,6,-1.0,comp,down,0.987849044828,1
angle,2,202,8,180,0.2,6,0.0,comp,right,0.693858942057,1
angle,2,203,8,0,0.4,6,2.0,equ,n,0.564473615119,1
angle,2,204,8,0,0.4,6,-1.0,comp,left,0.717369748636,1
angle,2,205,8,270,0.0,6,1.0,comp,up,1.54037408016,1
angle,2,206,8,90,0.8,6,-1.5,comp,up,1.8581578551,1
angle,2,207,8,270,0.6,6,-1.0,equ,n,0.705638875697,1
angle,2,208,8,0,0.0,6,1.0,comp,left,0.882012853137,1
angle,2,209,8,270,0.4,6,2.0,equ,m,1.16422417213,1
angle,2,210,8,180,0.8,6,0.0,comp,left,0.776169762285,1
angle,2,211,8,180,0.8,6,1.5,equ,n,1.39946178881,1
angle,2,212,8,90,0.4,6,-1.0,equ,m,0.787940880327,1
angle,2,213,8,180,0.2,6,0.5,equ,n,0.682062143806,1
angle,2,214,8,0,0.4,6,-0.5,equ,n,0.846753925718,1
angle,2,215,8,90,0.4,6,1.5,comp,down,1.30536221935,1
angle,2,216,8,90,0.6,6,-1.5,comp,up,0.635013317296,1
angle,2,217,8,90,0.4,6,1.5,equ,m,0.846771556906,1
angle,2,218,8,270,0.2,6,1.5,equ,n,0.752621393607,1
angle,2,219,8,180,0.6,6,0.0,comp,right,0.893801219081,1
angle,2,220,8,270,0.8,6,1.5,equ,m,0.999632428047,1
angle,2,221,8,180,0.8,6,0.5,equ,n,1.72875719668,1
angle,2,222,8,270,0.0,6,-1.0,comp,up,0.705600547029,1
angle,2,223,8,180,0.0,6,2.0,comp,left,0.740905852137,1
angle,2,224,8,270,0.8,6,-1.5,equ,n,1.07018094582,1
angle,2,225,8,180,0.0,6,-1.0,equ,m,0.705637342551,1
angle,2,226,8,0,0.4,6,-1.0,equ,m,0.92902756713,1
angle,2,227,8,90,0.0,6,1.5,equ,n,0.658570884854,1
angle,2,228,8,180,0.6,6,-0.5,comp,left,0.776145231932,1
angle,2,229,8,270,0.4,6,1.5,equ,n,0.764435823046,1
angle,2,230,8,270,0.0,6,-2.0,comp,up,2.09331076541,1
angle,2,231,8,180,0.8,6,-1.0,comp,right,0.670317089258,1
angle,2,232,8,180,0.6,6,2.0,equ,m,1.01137403302,1
angle,2,233,8,0,0.6,6,2.0,equ,n,0.929041748739,1
angle,2,234,8,270,0.4,6,-1.5,equ,n,0.764435439763,1
angle,2,235,8,90,0.0,6,1.0,equ,m,0.752637491649,1
angle,2,236,8,0,0.4,6,2.0,comp,right,0.811424856834,1
angle,2,237,8,180,0.4,6,1.5,comp,left,0.811455136482,1
angle,2,238,8,0,0.8,6,2.0,equ,n,1.44614380994,1
angle,2,239,8,90,0.6,6,-2.0,equ,m,1.01139396392,1
angle,2,240,8,0,0.2,6,0.5,comp,right,0.623331505056,1
angle,2,241,8,270,0.2,6,1.0,equ,n,0.682079008424,1
angle,2,242,8,0,0.0,6,1.5,equ,n,0.611500977571,1
angle,2,243,8,180,0.8,6,-1.5,equ,m,0.905557005659,1
angle,2,244,8,90,0.0,6,0.5,equ,n,0.823203640612,1
angle,2,245,8,90,0.4,6,-1.5,equ,m,0.764440422488,1
angle,2,246,8,90,0.2,6,-1.0,comp,down,1.64645902492,1
angle,2,247,8,0,0.4,6,1.5,comp,right,0.846765041031,1
angle,2,248,8,0,0.6,6,-1.5,comp,left,0.658557086532,1
angle,2,249,8,0,0.4,6,-2.0,equ,n,0.729081840527,1
angle,2,250,8,180,0.0,6,-1.5,equ,m,0.870231769641,1
angle,2,251,8,180,0.4,6,0.0,equ,m,1.08195934631,1
angle,2,252,8,270,0.8,6,1.5,comp,down,0.987862076578,1
angle,2,253,8,90,0.8,6,1.5,comp,down,1.27010980781,1
angle,2,254,8,180,0.4,6,2.0,equ,n,0.823248868441,1
angle,2,255,8,270,0.0,6,2.0,equ,n,1.09367488778,1
angle,2,256,8,90,0.8,6,0.5,equ,m,0.976071794201,1
angle,2,257,8,90,0.0,6,-0.5,equ,n,0.84673629453,1
angle,2,258,8,90,0.6,6,1.0,equ,m,0.834975908514,1
angle,2,259,8,0,0.8,6,1.0,equ,n,0.611505577013,1
angle,2,260,8,90,0.6,6,0.0,equ,m,1.05839372974,1
angle,2,261,8,0,0.2,6,2.0,comp,right,0.693855492482,1
angle,2,262,8,90,0.0,6,-1.5,equ,n,1.94045526028,1
angle,2,263,8,90,0.4,6,-1.5,comp,down,2.55199456653,1
angle,2,264,8,90,0.2,6,2.0,equ,n,0.635083458765,1
angle,2,265,8,0,0.2,6,0.0,equ,n,0.764338851513,1
angle,2,266,8,0,0.2,6,0.5,equ,m,0.764425857597,1
angle,2,267,8,270,0.0,6,1.5,equ,n,0.658577784012,1
angle,2,268,8,0,0.0,6,-1.5,equ,n,0.764401710534,1
angle,2,269,8,90,0.8,6,-1.5,equ,n,0.670302907649,1
angle,2,270,8,270,0.2,6,-2.0,equ,n,0.776191609624,1
angle,2,271,8,0,0.2,6,2.0,equ,m,0.905505261951,1
angle,2,272,8,270,0.0,6,2.0,comp,up,1.34070202026,1
angle,2,273,8,0,0.4,6,0.5,equ,n,0.799741511448,1
angle,2,274,8,180,0.4,6,2.0,comp,left,0.764470318853,1
angle,2,275,8,90,0.0,6,-0.5,comp,down,1.21129561255,1
angle,2,276,8,180,0.8,6,1.0,equ,n,0.870231003064,1
angle,2,277,8,180,0.2,6,-1.0,comp,left,1.04663449358,1
angle,2,278,8,0,0.4,6,1.0,comp,right,0.717351734162,1
angle,2,279,8,270,0.4,6,1.5,comp,down,0.940794852308,1
angle,2,280,8,270,0.0,6,-2.0,equ,n,0.576265047359,1
angle,2,281,8,270,0.8,6,-0.5,comp,up,0.811459352637,1
angle,2,282,8,90,0.4,6,2.0,comp,up,2.77543461838,1
angle,2,283,8,270,0.6,6,1.0,comp,down,1.74051719942,1
angle,2,284,8,180,0.8,6,2.0,equ,n,0.705569884089,1
angle,2,285,8,270,0.6,6,1.0,equ,n,0.658570501564,1
angle,2,286,8,0,0.2,6,0.0,comp,right,0.83495521103400006,1
angle,2,287,8,270,0.0,6,-1.5,equ,n,1.54058948729,1
angle,2,288,8,270,0.2,6,-0.5,equ,m,0.635040147365,1
angle,2,289,8,0,0.6,6,-0.5,equ,n,1.55230656191,1
angle,2,290,8,0,0.0,6,0.5,comp,right,0.823224721378,1
angle,2,291,8,0,0.2,6,1.5,comp,right,0.799700883053,1
angle,2,292,8,90,0.8,6,1.0,comp,up,2.57549234136,1
angle,2,293,8,0,0.6,6,0.0,equ,n,0.81148273312600006,1
angle,2,294,8,180,0.8,6,-0.5,equ,m,0.764450004655,1
angle,2,295,8,180,0.0,6,2.0,equ,n,0.834957127467,1
angle,2,296,8,180,0.6,6,-1.5,comp,right,0.976064511753,1
angle,2,297,8,0,0.4,6,1.0,equ,m,1.32894623369,1
angle,2,298,8,180,0.4,6,-1.0,equ,n,0.823189842289,1
angle,2,299,8,180,0.6,6,0.0,equ,n,1.4818109377,1
angle,2,300,8,180,0.4,6,-0.5,comp,left,0.882042749501,1
angle,2,301,8,0,0.6,6,-2.0,equ,m,0.882055781251,1
angle,2,302,8,0,0.0,6,-1.0,comp,right,0.7761605634,1
angle,2,303,8,0,0.2,6,-2.0,equ,n,1.85809614594,1
angle,2,304,8,0,0.6,6,1.5,comp,right,1.15250134821,1
angle,2,305,8,90,0.0,6,-1.0,equ,n,0.905543590623,1
angle,2,306,8,0,0.4,6,0.0,comp,left,0.94081516650100006,1
angle,2,307,8,0,0.8,6,-1.5,equ,n,0.611546971977,1
angle,2,308,8,180,0.8,6,-0.5,comp,right,0.881992922226,1
angle,2,309,8,180,0.8,6,-2.0,comp,right,0.658580083731,1
angle,2,310,8,270,0.4,6,1.0,equ,m,1.02316584854,1
angle,2,311,8,90,0.6,6,-0.5,comp,up,1.54053774358,1
angle,2,312,8,90,0.2,6,-0.5,comp,up,0.729169229897,1
angle,2,313,8,90,0.8,6,1.5,equ,m,1.27010405851,1
angle,2,314,8,270,0.0,6,0.5,comp,up,0.964356252727,1
angle,2,315,8,270,0.2,6,-0.5,comp,down,1.14075974324,1
angle,2,316,8,270,0.2,6,0.0,equ,n,0.635053945687,1
angle,2,317,8,270,0.0,6,1.5,comp,up,0.752683486055,1
angle,2,318,8,270,0.2,6,1.0,comp,down,2.04630410044,1
angle,2,319,8,90,0.2,6,-2.0,comp,up,0.882002887683,1
angle,2,320,8,180,0.0,6,-2.0,equ,n,1.05841442722,1
angle,2,321,8,90,0.0,6,2.0,equ,n,0.811453220052,1
angle,2,322,8,270,0.6,6,1.5,comp,down,0.940789869579,1
angle,2,323,8,180,0.2,6,1.0,equ,n,0.71737664779700006,1
angle,2,324,8,90,0.4,6,2.0,equ,m,0.905549339925,1
angle,2,325,8,180,0.2,6,0.0,equ,n,1.81108143194,1
angle,2,326,8,90,0.6,6,1.5,comp,up,0.929077777688,1
angle,2,327,8,180,0.0,6,1.5,equ,m,0.846702948587,1
angle,2,328,8,270,0.6,6,1.5,equ,m,0.905540141041,1
angle,2,329,8,0,0.2,6,-1.5,comp,left,0.799691684173,1
angle,2,330,8,180,0.4,6,1.0,comp,left,0.882005187403,1
angle,2,331,8,90,0.2,6,0.0,comp,up,1.61117173429,1
angle,2,332,8,90,0.4,6,1.0,comp,down,0.97607524378,1
angle,2,333,8,180,0.0,6,1.5,comp,left,0.68208974045,1
angle,2,334,8,180,0.2,6,2.0,comp,left,0.752658572419,1
angle,2,335,8,90,0.0,6,-2.0,comp,down,1.0113801656,1
angle,2,336,8,270,0.6,6,-0.5,comp,up,0.729103687867,1
angle,2,337,8,270,0.8,6,0.0,equ,n,0.71737664779700006,1
angle,2,338,8,180,0.0,6,0.0,equ,n,0.729109053886,1
angle,2,339,8,180,0.4,6,-1.5,equ,m,0.952537223846,1
angle,2,340,8,90,0.8,6,1.0,equ,n,0.646783285483,1
angle,2,341,8,270,0.6,6,-2.0,equ,m,0.670349668631,1
angle,2,342,8,270,0.4,6,2.0,comp,up,0.764406309972,1
angle,2,343,8,0,0.0,6,0.0,comp,left,0.682067509821,1
angle,2,344,8,90,0.0,6,1.5,comp,up,0.6703331873,1
angle,2,345,8,270,0.6,6,-0.5,equ,n,0.717362466188,1
angle,2,346,8,270,0.4,6,-1.0,equ,n,0.717385080105,1
angle,2,347,8,180,0.2,6,-2.0,comp,left,1.04664215932,1
angle,2,348,8,270,0.0,6,0.0,equ,m,1.03488100673,1
angle,2,349,8,180,0.8,6,2.0,comp,right,3.05771837856,1
angle,2,350,8,180,0.4,6,1.5,equ,n,0.682270268488,1
angle,2,351,8,0,0.2,6,-1.0,equ,m,0.823182943128,1
angle,2,352,8,180,0.4,6,0.5,equ,m,0.870273547891,1
angle,2,353,8,0,0.6,6,-2.0,comp,left,0.705611279052,1
angle,2,354,8,180,0.0,6,-1.0,comp,right,0.72913856696,1
angle,2,355,8,180,0.0,6,0.5,equ,n,1.65817763269,1
angle,2,356,8,180,0.0,6,-0.5,equ,n,0.587982505262,1
angle,2,357,8,270,0.8,6,0.5,equ,n,2.10509031576,1
angle,2,358,8,180,0.2,6,-1.0,equ,n,0.670348135482,1
angle,2,359,8,0,0.0,6,-2.0,comp,left,0.92910460776,1
angle,2,360,8,0,0.8,6,0.5,comp,left,0.764435439763,1
angle,3,1,8,270,0.6,6,0.5,equ,n,1.76400835099,1
angle,3,2,8,90,0.4,6,-1.0,equ,n,0.846719838348,1
angle,3,3,8,180,0.2,6,1.5,equ,n,1.17600084016,1
angle,3,4,8,0,0.6,6,-1.0,equ,n,1.09365500552,1
angle,3,5,8,270,0.4,6,2.0,equ,n,0.905525533792,1
angle,3,6,8,180,0.2,6,0.5,equ,n,1.59937072471,1
angle,3,7,8,0,0.4,6,-1.0,equ,n,0.787927174548,1
angle,3,8,8,90,0.2,6,-0.5,comp,up,1.67006396623,1
angle,3,9,8,0,0.2,6,1.5,comp,right,1.48173901978,1
angle,3,10,8,270,0.6,6,-2.0,comp,up,3.55158443761,1
angle,3,11,8,0,0.0,6,0.5,equ,n,0.717358116974,1
angle,3,12,8,270,0.4,6,1.5,equ,n,0.776178760483,1
angle,3,13,8,180,0.8,6,-1.0,equ,n,0.693803796272,1
angle,3,14,8,90,0.4,6,2.0,comp,down,2.24617588202,1
angle,3,15,8,180,0.4,6,2.0,equ,n,0.858584004112,1
angle,3,16,8,270,0.8,6,1.5,comp,up,1.03487000739,1
angle,3,17,8,0,0.8,6,0.5,comp,right,0.94106743763,1
angle,3,18,8,270,0.2,6,0.5,equ,n,1.1289619564,1
angle,3,19,8,0,0.0,6,-1.5,comp,left,0.78789344558,1
angle,3,20,8,0,0.2,6,1.5,equ,n,0.634842104337,1
angle,3,21,8,90,0.2,6,1.5,equ,n,2.17560490802,1
angle,3,22,8,0,0.8,6,-1.5,equ,n,0.693818744337,1
angle,3,23,8,270,0.6,6,-1.0,comp,up,1.02313347512,1
angle,3,24,8,270,0.6,6,1.0,comp,up,0.81145313225,1
angle,3,25,8,90,0.0,6,-0.5,equ,n,0.729142942997,1
angle,3,26,8,180,0.0,6,0.5,comp,left,1.21125834744,1
angle,3,27,8,270,0.8,6,0.5,equ,n,0.717359650109,1
angle,3,28,8,90,0.8,6,0.0,equ,n,1.07017235888,1
angle,3,29,8,270,0.0,6,2.0,equ,n,0.787918359027,1
angle,3,30,8,0,0.8,6,0.0,comp,right,1.03483934469,1
angle,3,31,8,90,0.0,6,0.5,equ,n,1.85812598001,1
angle,3,32,8,0,0.8,6,1.0,comp,right,0.881972746225,1
angle,3,33,8,270,0.0,6,-0.5,equ,n,0.752700713252,1
angle,3,34,8,90,0.4,6,1.0,equ,n,0.658559320636,1
angle,3,35,8,90,0.6,6,0.0,equ,n,0.68208336192,1
angle,3,36,8,0,0.2,6,2.0,equ,n,0.646825088068,1
angle,3,37,8,180,0.8,6,2.0,comp,right,0.964325479978,1
angle,3,38,8,270,0.4,6,-0.5,comp,up,1.47001743558,1
angle,3,39,8,0,0.4,6,-2.0,comp,right,0.893794367494,1
angle,3,40,8,180,0.0,6,-1.0,equ,n,1.3524083444,1
angle,3,41,8,180,0.0,6,1.5,equ,n,0.893750673142,1
angle,3,42,8,180,0.2,6,-1.5,equ,n,0.764377836542,1
angle,3,43,8,90,0.4,6,1.5,equ,m,1.0348769065,1
angle,3,44,8,0,0.6,6,0.0,comp,right,0.658559320636,1
angle,3,45,8,0,0.6,6,0.5,equ,m,1.11720319367,1
angle,3,46,8,90,0.4,6,0.5,equ,m,0.799621545608,1
angle,3,47,8,90,0.4,6,-1.5,comp,up,1.03492021756,1
angle,3,48,8,0,0.8,6,1.5,equ,n,1.59936842501,1
angle,3,49,8,180,0.4,6,1.0,comp,left,0.764397767292,1
angle,3,50,8,180,0.6,6,0.5,equ,n,0.693803796272,1
angle,3,51,8,270,0.2,6,-1.5,comp,down,1.32892339805,1
angle,3,52,8,0,0.4,6,-2.0,equ,n,1.24656683147,1
angle,3,53,8,90,0.4,6,-0.5,equ,n,0.576255263924,1
angle,3,54,8,0,0.2,6,-2.0,equ,n,0.705655313675,1
angle,3,55,8,270,0.0,6,-1.0,equ,n,0.752667367564,1
angle,3,56,8,270,0.4,6,-1.5,equ,n,0.623330559636,1
angle,3,57,8,270,0.4,6,0.0,comp,down,1.09369410046,1
angle,3,58,8,90,0.2,6,-1.5,equ,n,2.31676755334,1
angle,3,59,8,180,0.4,6,-1.5,equ,m,0.987872901569,1
angle,3,60,8,180,0.0,6,1.0,equ,n,0.79967558862,1
angle,3,61,8,180,0.8,6,0.0,comp,right,1.10543254915,1
angle,3,62,8,90,0.4,6,1.5,comp,down,1.17600199001,1
angle,3,63,8,0,0.0,6,-2.0,equ,n,0.729088899989,1
angle,3,64,8,270,0.2,6,2.0,equ,n,1.17601655479,1
angle,3,65,8,270,0.0,6,0.0,equ,n,1.39945949323,1
angle,3,66,8,90,0.6,6,-1.0,equ,n,0.705558342877,1
angle,3,67,8,270,0.6,6,1.0,equ,m,1.17596749447,1
angle,3,68,8,0,0.0,6,-1.0,comp,left,0.929059540449,1
angle,3,69,8,0,0.6,6,-2.0,equ,n,0.846731720143,1
angle,3,70,8,270,0.8,6,-0.5,comp,up,0.858526511547,1
angle,3,71,8,90,0.2,6,1.0,equ,n,0.682110958351,1
angle,3,72,8,180,0.4,6,-0.5,equ,m,1.17596557805,1
angle,3,73,8,180,0.0,6,0.0,comp,right,1.10544213124,1
angle,3,74,8,90,0.8,6,-0.5,comp,up,1.32891228283,1
angle,3,75,8,90,0.6,6,1.5,equ,m,0.964332379084,1
angle,3,76,8,180,0.2,6,-2.0,comp,right,0.89378095256,1
angle,3,77,8,0,0.0,6,-1.0,equ,n,0.776166495401,1
angle,3,78,8,270,0.4,6,-1.0,comp,up,0.729152908374,1
angle,3,79,8,270,0.4,6,-2.0,equ,n,3.62210711785,1
angle,3,80,8,270,0.2,6,-1.0,comp,down,1.69345079192,1
angle,3,81,8,180,0.8,6,-1.5,equ,n,0.587996012317,1
angle,3,82,8,270,0.8,6,0.0,comp,down,0.893752206277,1
angle,3,83,8,90,0.0,6,0.0,comp,up,0.729145625985,1
angle,3,84,8,90,0.6,6,0.5,equ,n,0.740888290795,1
angle,3,85,8,180,0.0,6,0.0,equ,n,0.929064523141,1
angle,3,86,8,180,0.8,6,0.0,equ,m,0.964327779679,1
angle,3,87,8,90,0.4,6,-1.0,comp,up,1.68170582741,1
angle,3,88,8,180,0.2,6,0.0,equ,n,1.49354032701,1
angle,3,89,8,0,0.2,6,-1.0,comp,right,2.65780425162,1
angle,3,90,8,90,0.2,6,-1.0,equ,n,0.81144584986,1
angle,3,91,8,0,0.4,6,-1.5,comp,right,0.705602803799,1
angle,3,92,8,180,0.4,6,0.5,comp,left,0.858469785551,1
angle,3,93,8,180,0.8,6,-0.5,equ,n,0.693843274497,1
angle,3,94,8,180,0.4,6,-1.0,comp,right,0.917280463684,1
angle,3,95,8,270,0.4,6,0.5,equ,n,0.646817039109,1
angle,3,96,8,180,0.6,6,-0.5,equ,n,0.71736578265,1
angle,3,97,8,180,0.2,6,-2.0,equ,n,0.588026291734,1
angle,3,98,8,180,0.6,6,2.0,comp,left,0.858485116896,1
angle,3,99,8,270,0.0,6,2.0,comp,up,3.82209960548,1
angle,3,100,8,180,0.0,6,2.0,comp,left,2.42272980066,1
angle,3,101,8,90,0.6,6,0.5,comp,down,0.870169139293,1
angle,3,102,8,270,0.2,6,-1.5,equ,n,0.670315400381,1
angle,3,103,8,90,0.2,6,1.0,comp,down,1.10541415152,1
angle,3,104,8,270,0.6,6,-1.5,comp,down,0.976084625989,1
angle,3,105,8,270,0.6,6,1.5,comp,up,0.776211339602,1
angle,3,106,8,0,0.8,6,-2.0,equ,n,0.834934629034,1
angle,3,107,8,270,0.6,6,0.5,comp,down,1.19954327906,1
angle,3,108,8,0,0.6,6,1.0,equ,n,0.599753625193,1
angle,3,109,8,180,0.2,6,1.0,equ,n,0.717338186219,1
angle,3,110,8,180,0.8,6,1.5,equ,n,0.682164234797,1
angle,3,111,8,90,0.6,6,1.5,comp,up,0.740908988118,1
angle,3,112,8,0,0.0,6,1.5,comp,right,0.834938845161,1
angle,3,113,8,0,0.0,6,-0.5,equ,n,0.799692453103,1
angle,3,114,8,0,0.8,6,0.5,equ,m,0.952593930397,1
angle,3,115,8,270,0.8,6,-1.5,equ,n,0.823229909322,1
angle,3,116,8,180,0.2,6,-0.5,equ,n,0.752657402187,1
angle,3,117,8,180,0.6,6,1.5,comp,right,1.10544404766,1
angle,3,118,8,270,0.6,6,0.0,comp,up,0.987872901569,1
angle,3,119,8,0,0.6,6,-1.5,comp,left,1.57584706671,1
angle,3,120,8,90,0.8,6,0.0,comp,up,1.28184771906,1
angle,3,121,8,0,0.8,6,-0.5,equ,n,1.27005407751,1
angle,3,122,8,90,0.4,6,-2.0,comp,up,0.540999289777,1
angle,3,123,8,90,0.8,6,2.0,comp,up,1.01136819657,1
angle,3,124,8,0,0.6,6,2.0,comp,right,0.834950343669,1
angle,3,125,8,90,0.6,6,1.0,comp,down,1.03489070472,1
angle,3,126,8,180,0.8,6,1.5,comp,left,0.764408499243,1
angle,3,127,8,90,0.6,6,-1.0,comp,up,0.834983689358,1
angle,3,128,8,90,0.4,6,0.5,comp,down,0.811461947778,1
angle,3,129,8,180,0.4,6,-1.0,equ,n,0.799644542632,1
angle,3,130,8,90,0.8,6,1.5,comp,down,1.35239914558,1
angle,3,131,8,270,0.4,6,0.5,comp,down,0.987846454987,1
angle,3,132,8,270,0.8,6,-1.0,equ,n,0.764406966104,1
angle,3,133,8,180,0.8,6,-1.5,comp,right,0.834973340698,1
angle,3,134,8,90,0.4,6,0.0,equ,n,0.682057681908,1
angle,3,135,8,180,0.4,6,-2.0,equ,n,0.576231117047,1
angle,3,136,8,90,0.8,6,0.5,comp,up,0.599788120733,1
angle,3,137,8,0,0.0,6,0.0,comp,left,1.32889005237,1
angle,3,138,8,270,0.6,6,-1.0,equ,n,0.693866654809,1
angle,3,139,8,0,0.2,6,1.0,equ,n,0.611552249436,1
angle,3,140,8,270,0.0,6,-0.5,comp,down,1.48180647772,1
angle,3,141,8,270,0.8,6,-1.5,comp,up,0.670303135299,1
angle,3,142,8,180,0.6,6,-0.5,comp,left,0.846733636565,1
angle,3,143,8,0,0.4,6,2.0,equ,n,0.658508727181,1
angle,3,144,8,270,0.4,6,-1.0,equ,n,1.10542718317,1
angle,3,145,8,90,0.8,6,0.5,equ,m,0.976098040919,1
angle,3,146,8,270,0.8,6,-0.5,equ,n,0.752629039187,1
angle,3,147,8,180,0.8,6,0.5,comp,right,1.51708659875,1
angle,3,148,8,270,0.6,6,-1.5,equ,n,0.564480403275,1
angle,3,149,8,180,0.2,6,2.0,equ,n,0.670367910257,1
angle,3,150,8,180,0.0,6,-1.5,comp,right,1.86987056124,1
angle,3,151,8,270,0.0,6,0.0,comp,down,0.811445466577,1
angle,3,152,8,90,0.6,6,1.0,equ,n,0.83495647621,1
angle,3,153,8,270,0.0,6,-2.0,equ,n,0.576241465707,1
angle,3,154,8,180,0.2,6,-1.0,comp,right,0.882042120589,1
angle,3,155,8,90,0.0,6,1.5,equ,n,0.858469402265,1
angle,3,156,8,90,0.2,6,-0.5,equ,n,0.82318621497,1
angle,3,157,8,0,0.0,6,1.0,equ,m,0.999578004572,1
angle,3,158,8,0,0.2,6,0.0,comp,left,0.77615806316,1
angle,3,159,8,90,0.8,6,2.0,equ,m,1.52879821758,1
angle,3,160,8,270,0.0,6,1.5,equ,m,0.940807571234,1
angle,3,161,8,270,0.2,6,1.0,comp,down,0.999601768162,1
angle,3,162,8,270,0.0,6,1.0,equ,n,0.799654891296,1
angle,3,163,8,90,0.2,6,0.0,comp,down,0.987854503946,1
angle,3,164,8,90,0.4,6,0.0,comp,down,0.858459436888,1
angle,3,165,8,180,0.0,6,1.5,comp,left,0.705611619323,1
angle,3,166,8,0,0.4,6,1.5,comp,right,0.76437285385,1
angle,3,167,8,0,0.2,6,-0.5,comp,right,0.752859776017,1
angle,3,168,8,180,0.0,6,-1.0,comp,left,0.705634233065,1
angle,3,169,8,270,0.0,6,0.5,comp,up,0.74087257616,1
angle,3,170,8,0,0.6,6,0.0,equ,n,0.717366932498,1
angle,3,171,8,90,0.6,6,-0.5,equ,m,0.799659490698,1
angle,3,172,8,90,0.6,6,-1.5,comp,up,0.764405432972,1
angle,3,173,8,90,0.0,6,-2.0,comp,up,0.59979808611,1
angle,3,174,8,0,0.2,6,-1.5,equ,n,0.646790209245,1
angle,3,175,8,0,0.0,6,-1.5,equ,n,0.564462772221,1
angle,3,176,8,90,0.2,6,1.5,comp,up,0.787919125592,1
angle,3,177,8,270,0.2,6,-0.5,equ,m,1.10545324647,1
angle,3,178,8,0,0.4,6,1.0,equ,n,0.752651652929,1
angle,3,179,8,90,0.6,6,-2.0,comp,up,0.729131061202,1
angle,3,180,8,180,0.6,6,1.0,equ,m,0.929073338666,1
angle,3,181,8,90,0.2,6,-2.0,equ,n,0.799660257268,1
angle,3,182,8,270,0.2,6,-1.0,equ,n,1.36421233461,1
angle,3,183,8,270,0.6,6,2.0,equ,m,0.752658168756,1
angle,3,184,8,270,0.0,6,-2.0,comp,down,1.45827362092,1
angle,3,185,8,90,0.6,6,-1.5,equ,n,0.646778710732,1
angle,3,186,8,0,0.6,6,-0.5,equ,n,0.787929474256,1
angle,3,187,8,270,0.0,6,-1.5,equ,n,0.693827943152,1
angle,3,188,8,270,0.4,6,-2.0,comp,down,0.999640863109,1
angle,3,189,8,90,0.0,6,2.0,comp,down,0.846741302237,1
angle,3,190,8,270,0.2,6,1.5,comp,up,0.623291081407,1
angle,3,191,8,0,0.4,6,1.5,equ,n,0.729085450435,1
angle,3,192,8,90,0.2,6,2.0,comp,down,0.881997659668,1
angle,3,193,8,0,0.8,6,2.0,equ,n,0.552753069816,1
angle,3,194,8,0,0.8,6,1.5,comp,right,1.11723960563,1
angle,3,195,8,180,0.2,6,1.0,comp,right,0.776166112122,1
angle,3,196,8,0,0.4,6,-1.0,comp,left,0.776178760483,1
angle,3,197,8,0,0.6,6,1.0,comp,right,0.799823536156,1
angle,3,198,8,90,0.0,6,-1.5,equ,n,0.599781221626,1
angle,3,199,8,270,0.0,6,1.5,comp,up,1.11722542413,1
angle,3,200,8,90,0.8,6,1.5,equ,n,2.19915347947,1
angle,3,201,8,0,0.6,6,-2.0,comp,right,0.776189109143,1
angle,3,202,8,0,0.6,6,1.5,equ,n,0.611495906724,1
angle,3,203,8,270,0.2,6,2.0,comp,up,0.599721812639,1
angle,3,204,8,270,0.6,6,1.5,equ,n,0.870254611571,1
angle,3,205,8,270,0.8,6,-2.0,equ,m,0.987843005434,1
angle,3,206,8,180,0.0,6,1.0,comp,left,1.01137317926,1
angle,3,207,8,180,0.8,6,-0.5,comp,right,0.576269828707,1
angle,3,208,8,90,0.0,6,-1.5,comp,up,0.693808395677,1
angle,3,209,8,270,0.6,6,2.0,comp,up,0.964335062072,1
angle,3,210,8,270,0.4,6,1.0,comp,up,0.752652036215,1
angle,3,211,8,180,0.4,6,-1.5,comp,right,0.893739557912,1
angle,3,212,8,0,0.2,6,2.0,comp,right,1.49352001297,1
angle,3,213,8,90,0.2,6,-1.5,comp,up,0.882030622073,1
angle,3,214,8,270,0.4,6,-0.5,equ,n,0.599755924897,1
angle,3,215,8,90,0.4,6,-0.5,comp,up,0.611506255384,1
angle,3,216,8,0,0.8,6,-2.0,comp,left,1.05840976331,1
angle,3,217,8,270,0.8,6,2.0,equ,n,1.54061332302,1
angle,3,218,8,270,0.2,6,-2.0,equ,n,0.729143709566,1
angle,3,219,8,0,0.4,6,-1.5,equ,n,0.658550505112,1
angle,3,220,8,180,0.6,6,0.5,comp,left,0.952554068881,1
angle,3,221,8,0,0.8,6,2.0,comp,right,0.705598204393,1
angle,3,222,8,0,0.4,6,0.0,comp,left,0.834940378292,1
angle,3,223,8,0,0.8,6,0.0,equ,n,0.540907301671,1
angle,3,224,8,0,0.0,6,0.0,equ,n,0.881976579065,1
angle,3,225,8,270,0.0,6,0.5,equ,n,0.823208445428,1
angle,3,226,8,0,0.6,6,-0.5,comp,right,0.635008066205,1
angle,3,227,8,270,0.2,6,0.5,comp,up,1.63450558119,1
angle,3,228,8,90,0.0,6,-0.5,comp,down,1.16431643448,1
angle,3,229,8,270,0.0,6,-1.5,comp,up,1.98746738734,1
angle,3,230,8,0,0.4,6,-0.5,comp,right,0.893743007466,1
angle,3,231,8,90,0.0,6,0.0,equ,n,0.929069122547,1
angle,3,232,8,270,0.4,6,1.5,comp,down,1.05841896212,1
angle,3,233,8,0,0.2,6,-1.5,comp,left,1.05840823018,1
angle,3,234,8,180,0.4,6,0.5,equ,n,1.51706283516,1
angle,3,235,8,180,0.6,6,2.0,equ,n,0.87025231187,1
angle,3,236,8,90,0.2,6,0.5,equ,m,0.976087692259,1
angle,3,237,8,90,0.6,6,0.0,comp,up,0.95257284979,1
angle,3,238,8,270,0.8,6,1.0,comp,up,0.787904560806,1
angle,3,239,8,90,0.8,6,-1.0,equ,n,0.799661407116,1
angle,3,240,8,180,0.6,6,0.0,comp,left,0.976103790177,1
angle,3,241,8,90,0.6,6,-0.5,comp,up,0.717367315785,1
angle,3,242,8,0,0.2,6,0.5,comp,right,0.729091966256,1
angle,3,243,8,90,0.4,6,-1.5,equ,n,0.823154785699,1
angle,3,244,8,180,0.2,6,2.0,comp,left,0.823200779752,1
angle,3,245,8,270,0.8,6,2.0,comp,up,2.15211306258,1
angle,3,246,8,270,0.4,6,1.0,equ,m,0.999601384879,1
angle,3,247,8,0,0.0,6,-2.0,comp,left,0.811322815771,1
angle,3,248,8,180,0.0,6,2.0,equ,n,0.646837736433,1
angle,3,249,8,180,0.4,6,1.0,equ,m,0.823228759469,1
angle,3,250,8,90,0.2,6,-1.0,comp,up,0.705591688569,1
angle,3,251,8,90,0.2,6,2.0,equ,n,0.670316933516,1
angle,3,252,8,90,0.4,6,2.0,equ,n,0.611526952707,1
angle,3,253,8,0,0.6,6,2.0,equ,n,0.588015943071,1
angle,3,254,8,90,0.0,6,1.0,comp,down,1.84635648533,1
angle,3,255,8,90,0.2,6,0.0,equ,n,0.823226843051,1
angle,3,256,8,0,0.4,6,1.0,comp,right,0.6585413063,1
angle,3,257,8,180,0.6,6,-1.5,comp,right,0.635041411893,1
angle,3,258,8,0,0.0,6,2.0,comp,right,0.588034723976,1
angle,3,259,8,180,0.0,6,0.5,equ,m,1.21129897552,1
angle,3,260,8,180,0.8,6,1.0,equ,n,0.705590922,1
angle,3,261,8,270,0.8,6,-2.0,comp,down,1.01135746462,1
angle,3,262,8,180,0.4,6,0.0,comp,right,0.752508304802,1
angle,3,263,8,180,0.4,6,-0.5,comp,right,0.78792909097,1
angle,3,264,8,0,0.4,6,-0.5,equ,n,0.576238016154,1
angle,3,265,8,270,0.8,6,0.5,comp,up,0.540947546466,1
angle,3,266,8,270,0.4,6,0.0,equ,n,0.787949021724,1
angle,3,267,8,0,0.4,6,0.0,equ,n,1.093728596,1
angle,3,268,8,270,0.2,6,0.0,comp,up,0.587807436703,1
angle,3,269,8,0,0.2,6,1.0,comp,right,0.564473504168,1
angle,3,270,8,90,0.8,6,-1.5,equ,n,0.670312717393,1
angle,3,271,8,180,0.0,6,-1.5,equ,m,0.929008563708,1
angle,3,272,8,270,0.0,6,1.0,comp,up,0.787947105309,1
angle,3,273,8,90,0.4,6,1.0,comp,down,1.1642309622,1
angle,3,274,8,180,0.4,6,-2.0,comp,right,0.776191025565,1
angle,3,275,8,0,0.2,6,-0.5,equ,n,0.576239166006,1
angle,3,276,8,0,0.8,6,-1.5,comp,left,1.24656989774,1
angle,3,277,8,90,0.0,6,-2.0,equ,n,1.21130127522,1
angle,3,278,8,0,0.2,6,0.5,equ,m,0.84677004852,1
angle,3,279,8,90,0.0,6,1.5,comp,down,1.29361453075,1
angle,3,280,8,0,0.8,6,-0.5,comp,left,0.846735169696,1
angle,3,281,8,270,0.8,6,1.0,equ,n,1.35238534737,1
angle,3,282,8,90,0.0,6,-1.0,equ,n,0.611531935392,1
angle,3,283,8,270,0.8,6,1.5,equ,n,1.71693842125,1
angle,3,284,8,180,0.6,6,-1.0,equ,n,0.646796341785,1
angle,3,285,8,270,0.2,6,-0.5,comp,down,0.929025811478,1
angle,3,286,8,90,0.4,6,-2.0,equ,n,0.623260418706,1
angle,3,287,8,0,0.6,6,0.5,comp,right,0.740926235889,1
angle,3,288,8,180,0.4,6,0.0,equ,n,1.25834054226,1
angle,3,289,8,270,0.2,6,1.0,equ,m,0.929061840154,1
angle,3,290,8,180,0.6,6,0.0,equ,m,0.811441633741,1
angle,3,291,8,0,0.4,6,0.5,comp,left,1.07018117441,1
angle,3,292,8,0,0.6,6,-1.0,comp,left,0.764454110009,1
angle,3,293,8,90,0.0,6,1.0,equ,n,1.1760069727,1
angle,3,294,8,270,0.0,6,-1.0,comp,down,0.976104173464,1
angle,3,295,8,180,0.0,6,-0.5,comp,left,0.623295680813,1
angle,3,296,8,180,0.6,6,-2.0,comp,right,0.764384352362,1
angle,3,297,8,90,0.8,6,1.0,comp,down,0.929027344613,1
angle,3,298,8,0,0.0,6,0.5,comp,right,0.740877175569,1
angle,3,299,8,180,0.2,6,-0.5,comp,left,0.823218410806,1
angle,3,300,8,270,0.2,6,1.5,equ,n,1.77577592924,1
angle,3,301,8,0,0.4,6,0.5,equ,n,0.611507021953,1
angle,3,302,8,180,0.2,6,0.5,comp,right,0.764461775685,1
angle,3,303,8,90,0.2,6,0.5,comp,up,0.858486650035,1
angle,3,304,8,180,0.2,6,-1.5,comp,right,0.787934456945,1
angle,3,305,8,90,0.8,6,-2.0,comp,up,0.670356411742,1
angle,3,306,8,90,0.8,6,-1.5,comp,up,1.17601003897,1
angle,3,307,8,180,0.4,6,1.5,comp,left,0.599803835365,1
angle,3,308,8,180,0.4,6,2.0,comp,left,0.588033190841,1
angle,3,309,8,180,0.6,6,-1.5,equ,m,1.81108326342,1
angle,3,310,8,90,0.0,6,0.5,comp,up,0.823218794088,1
angle,3,311,8,180,0.0,6,-2.0,equ,n,0.51744266937,1
angle,3,312,8,180,0.2,6,1.5,comp,left,0.776152697188,1
angle,3,313,8,90,0.8,6,1.0,equ,m,1.1524338711,1
angle,3,314,8,180,0.4,6,1.5,equ,m,0.893771753748,1
angle,3,315,8,180,0.0,6,-2.0,comp,right,0.670330348446,1
angle,3,316,8,0,0.2,6,0.0,equ,m,1.01137126284,1
angle,3,317,8,90,0.6,6,-2.0,equ,m,0.752699180117,1
angle,3,318,8,0,0.0,6,-0.5,comp,right,0.623283799017,1
angle,3,319,8,0,0.8,6,1.0,equ,n,0.540953679007,1
angle,3,320,8,180,0.8,6,2.0,equ,n,0.552722407116,1
angle,3,321,8,0,0.6,6,1.5,comp,right,0.693852856595,1
angle,3,322,8,180,0.8,6,-2.0,comp,right,0.905557346341,1
angle,3,323,8,0,0.8,6,-1.0,equ,n,0.717392995793,1
angle,3,324,8,270,0.4,6,2.0,comp,up,1.35243440769,1
angle,3,325,8,90,0.8,6,-2.0,equ,n,0.693906899607,1
angle,3,326,8,0,0.0,6,1.0,comp,right,1.46998447317,1
angle,3,327,8,180,0.8,6,-1.0,comp,right,0.811409437905,1
angle,3,328,8,270,0.6,6,-2.0,equ,n,0.611555698986,1
angle,3,329,8,270,0.8,6,-1.0,comp,down,1.4229697363,1
angle,3,330,8,0,0.4,6,2.0,comp,right,0.799684020862,1
angle,3,331,8,0,0.2,6,-2.0,comp,left,0.764373620415,1
angle,3,332,8,180,0.6,6,1.0,comp,right,0.599768956545,1
angle,3,333,8,0,0.6,6,-1.5,equ,m,1.17603035301,1
angle,3,334,8,0,0.2,6,-1.0,equ,n,1.09374009451,1
angle,3,335,8,90,0.8,6,-0.5,equ,n,0.71737613131,1
angle,3,336,8,0,0.8,6,-1.0,comp,left,0.693870104362,1
angle,3,337,8,0,0.0,6,1.5,equ,n,1.52882274774,1
angle,3,338,8,180,0.6,6,-2.0,equ,m,1.28185806772,1
angle,3,339,8,180,0.8,6,0.5,equ,n,0.846757016872,1
angle,3,340,8,270,0.2,6,0.0,equ,n,1.15251359412,1
angle,3,341,8,90,0.0,6,2.0,equ,m,1.0584335269,1
angle,3,342,8,90,0.6,6,2.0,equ,m,1.0466341361,1
angle,3,343,8,180,0.2,6,-1.0,equ,n,0.646794042084,1
angle,3,344,8,90,0.8,6,-1.0,comp,up,1.02314382379,1
angle,3,345,8,90,0.0,6,-1.0,comp,up,0.63501726502,1
angle,3,346,8,180,0.2,6,0.0,comp,right,2.09334377909,1
angle,3,347,8,270,0.8,6,0.0,equ,n,0.670333414717,1
angle,3,348,8,270,0.6,6,-0.5,equ,n,0.599774322516,1
angle,3,349,8,180,0.8,6,1.0,comp,left,0.623287248571,1
angle,3,350,8,90,0.6,6,2.0,comp,down,1.1054831426,1
angle,3,351,8,180,0.6,6,-1.0,comp,left,0.858489716305,1
angle,3,352,8,90,0.2,6,-2.0,comp,up,0.658584617369,1
angle,3,353,8,180,0.0,6,-0.5,equ,n,0.776167645254,1
angle,3,354,8,270,0.6,6,0.0,equ,n,0.752673883388,1
angle,3,355,8,180,0.8,6,-2.0,equ,m,0.96430554922,1
angle,3,356,8,270,0.4,6,-1.5,comp,down,1.29364672658,1
angle,3,357,8,0,0.0,6,2.0,equ,n,0.799778691951,1
angle,3,358,8,270,0.6,6,-0.5,comp,down,0.952558668287,1
angle,3,359,8,180,0.6,6,1.5,equ,n,1.39952196848,1
angle,3,360,8,270,0.2,6,-2.0,comp,down,1.6229112472,1
angle,4,1,8,90,0.8,6,1.0,comp,up,1.83458890708,1
angle,4,2,8,270,0.2,6,-1.0,equ,n,2.06977949302,1
angle,4,3,8,90,0.8,6,-2.0,equ,n,0.870250012169,1
angle,4,4,8,90,0.8,6,-1.0,equ,n,0.846722904615,1
angle,4,5,8,90,0.4,6,2.0,equ,n,0.740859927795,1
angle,4,6,8,270,0.8,6,1.5,comp,up,0.893764088072,1
angle,4,7,8,270,0.8,6,-0.5,comp,down,0.846747051492,1
angle,4,8,8,90,0.4,6,-0.5,comp,up,0.846727887303,1
angle,4,9,8,180,0.0,6,1.5,equ,n,2.14035046701,1
angle,4,10,8,0,0.0,6,-0.5,comp,left,1.2348042359,1
angle,4,11,8,180,0.8,6,-2.0,comp,right,0.540959428265,1
angle,4,12,8,0,0.4,6,2.0,equ,n,0.646835436732,1
angle,4,13,8,180,0.6,6,0.5,comp,left,1.1407379669,1
angle,4,14,8,270,0.0,6,0.5,equ,n,1.16426737416,1
angle,4,15,8,180,0.8,6,-2.0,equ,n,0.587986046936,1
angle,4,16,8,270,0.4,6,-1.5,comp,down,1.22304049048,1
angle,4,17,8,0,0.0,6,-0.5,equ,n,1.02314842319,1
angle,4,18,8,180,0.2,6,-1.5,equ,n,0.693867038091,1
angle,4,19,8,180,0.0,6,2.0,equ,n,1.07015281141,1
angle,4,20,8,0,0.2,6,-1.5,comp,left,0.834969507858,1
angle,4,21,8,270,0.0,6,-0.5,comp,up,1.09368528493,1
angle,4,22,8,90,0.2,6,0.0,equ,n,1.49353956044,1
angle,4,23,8,270,0.2,6,1.5,comp,up,0.881996126533,1
angle,4,24,8,180,0.0,6,-2.0,equ,n,0.611539217785,1
angle,4,25,8,90,0.2,6,-1.0,equ,n,1.22505732967,1
angle,4,26,8,270,0.4,6,1.0,comp,up,0.893740707765,1
angle,4,27,8,0,0.0,6,-2.0,equ,n,0.623274600206,1
angle,4,28,8,180,0.0,6,-0.5,comp,left,0.705575973934,1
angle,4,29,8,90,0.6,6,-1.5,comp,up,0.787911459916,1
angle,4,30,8,90,0.8,6,-1.5,equ,n,0.423315074971,1
angle,4,31,8,0,0.2,6,1.0,equ,n,0.799684020862,1
angle,4,32,8,90,0.8,6,1.5,equ,n,0.752611024851,1
angle,4,33,8,180,0.8,6,2.0,equ,n,0.846716388791,1
angle,4,34,8,180,0.2,6,2.0,equ,n,0.540963644384,1
angle,4,35,8,270,0.8,6,-1.0,equ,n,1.16426315804,1
angle,4,36,8,180,0.2,6,1.5,comp,left,1.04668051343,1
angle,4,37,8,180,0.0,6,0.0,equ,n,1.12896655581,1
angle,4,38,8,0,0.6,6,0.0,comp,right,0.858492782576,1
angle,4,39,8,270,0.0,6,0.0,comp,down,2.61075770218,1
angle,4,40,8,180,0.2,6,0.0,comp,right,1.3524106441,1
angle,4,41,8,0,0.0,6,-1.5,comp,left,0.576247598248,1
angle,4,42,8,0,0.6,6,-2.0,equ,n,1.45821574506,1
angle,4,43,8,180,0.6,6,0.5,equ,m,1.08190850786,1
angle,4,44,8,90,0.8,6,0.5,comp,down,1.98746393779,1
angle,4,45,8,0,0.2,6,-1.0,equ,n,1.96395369472,1
angle,4,46,8,180,0.8,6,0.0,comp,left,1.14074524929,1
angle,4,47,8,90,0.6,6,2.0,equ,n,1.54055429732,1
angle,4,48,8,180,0.6,6,2.0,equ,n,1.48178079771,1
angle,4,49,8,270,0.8,6,-2.0,equ,n,0.588022842177,1
angle,4,50,8,270,0.8,6,1.0,equ,n,0.693847873903,1
angle,4,51,8,0,0.8,6,-2.0,comp,left,1.28189332983,1
angle,4,52,8,270,0.2,6,1.0,equ,n,0.670384391458,1
angle,4,53,8,270,0.2,6,1.0,comp,down,1.08190275861,1
angle,4,54,8,180,0.2,6,-1.5,comp,left,1.1407356672,1
angle,4,55,8,270,0.8,6,-1.0,comp,down,1.19955631071,1
angle,4,56,8,90,0.0,6,0.0,equ,n,0.752604892314,1
angle,4,57,8,270,0.2,6,0.0,comp,down,2.22269668494,1
angle,4,58,8,0,0.8,6,2.0,equ,n,1.81106563236,1
angle,4,59,8,270,0.0,6,-0.5,equ,n,0.964306699072,1
angle,4,60,8,0,0.6,6,-2.0,comp,left,0.764393551173,1
angle,4,61,8,270,0.6,6,0.5,equ,n,1.64642915594,1
angle,4,62,8,270,0.4,6,-1.0,equ,n,0.693783482231,1
angle,4,63,8,90,0.4,6,0.0,comp,up,0.635014582032,1
angle,4,64,8,270,0.0,6,1.5,comp,up,0.811414803873,1
angle,4,65,8,0,0.6,6,2.0,comp,right,0.576266379154,1
angle,4,66,8,270,0.0,6,2.0,comp,up,0.752671200404,1
angle,4,67,8,180,0.6,6,0.0,equ,n,0.76437592012,1
angle,4,68,8,0,0.4,6,-1.5,comp,left,0.952561734561,1
angle,4,69,8,180,0.8,6,1.0,equ,n,0.752681165781,1
angle,4,70,8,180,0.4,6,1.5,comp,left,0.658557404218,1
angle,4,71,8,0,0.6,6,-1.0,equ,n,1.34066491302,1
angle,4,72,8,270,0.6,6,1.5,equ,n,0.823239108129,1
angle,4,73,8,270,0.6,6,0.0,equ,m,0.8114048385,1
angle,4,74,8,0,0.8,6,1.0,equ,n,0.776164578983,1
angle,4,75,8,0,0.0,6,0.5,comp,left,1.2818561513,1
angle,4,76,8,90,0.0,6,-0.5,comp,down,1.0937128813600001,1
angle,4,77,8,90,0.0,6,-1.5,equ,n,0.599748259221,1
angle,4,78,8,270,0.6,6,-1.0,equ,m,1.05841359615,1
angle,4,79,8,270,0.4,6,0.0,comp,up,0.752630955605,1
angle,4,80,8,270,0.4,6,1.5,comp,up,0.65863291112,1
angle,4,81,8,90,0.2,6,-2.0,equ,n,0.69386473839,1
angle,4,82,8,0,0.6,6,-0.5,equ,n,0.682057298625,1
angle,4,83,8,180,0.4,6,0.5,comp,left,1.41121135685,1
angle,4,84,8,270,0.6,6,1.0,equ,n,0.693847107337,1
angle,4,85,8,90,0.8,6,1.5,comp,down,1.71701009531,1
angle,4,86,8,180,0.8,6,1.5,equ,n,0.611531168826,1
angle,4,87,8,0,0.0,6,1.5,equ,n,0.5879986953,1
angle,4,88,8,180,0.8,6,2.0,comp,left,2.26969877345,1
angle,4,89,8,270,0.8,6,2.0,comp,up,0.811446233143,1
angle,4,90,8,270,0.8,6,-1.5,equ,n,0.999606750855,1
angle,4,91,8,90,0.2,6,-0.5,comp,down,1.57587964583,1
angle,4,92,8,0,0.6,6,0.5,equ,n,0.52917268582,1
angle,4,93,8,0,0.8,6,2.0,comp,right,0.823243324252,1
angle,4,94,8,90,0.8,6,-1.0,comp,down,0.99961135026,1
angle,4,95,8,270,0.6,6,-1.5,equ,n,1.29365017614,1
angle,4,96,8,180,0.4,6,-1.0,comp,left,0.740861077651,1
angle,4,97,8,180,0.8,6,0.5,equ,n,0.611497439859,1
angle,4,98,8,180,0.0,6,-1.5,equ,n,0.823224160064,1
angle,4,99,8,90,0.0,6,-2.0,comp,up,0.976067761505,1
angle,4,100,8,270,0.8,6,2.0,equ,m,1.02331016894,1
angle,4,101,8,180,0.4,6,2.0,equ,n,0.940819836313,1
angle,4,102,8,90,0.2,6,-0.5,equ,m,0.799690153402,1
angle,4,103,8,270,0.2,6,0.5,comp,up,0.905556963058,1
angle,4,104,8,270,0.8,6,-1.5,comp,down,0.917253633816,1
angle,4,105,8,90,0.6,6,0.5,equ,n,0.682083361917,1
angle,4,106,8,90,0.4,6,0.5,equ,n,0.952608495179,1
angle,4,107,8,0,0.8,6,-1.0,equ,n,0.787943272469,1
angle,4,108,8,90,0.6,6,-0.5,comp,up,0.5880128768,1
angle,4,109,8,270,0.4,6,-0.5,comp,down,0.940770009423,1
angle,4,110,8,180,0.0,6,0.0,comp,left,0.987869068733,1
angle,4,111,8,180,0.4,6,-1.5,equ,n,0.705616602012,1
angle,4,112,8,0,0.4,6,-0.5,equ,m,1.03489607069,1
angle,4,113,8,0,0.0,6,2.0,comp,right,0.764439161943,1
angle,4,114,8,180,0.6,6,-0.5,comp,left,0.846726737454,1
angle,4,115,8,90,0.6,6,1.5,equ,m,1.0701669929,1
angle,4,116,8,270,0.4,6,0.5,comp,up,0.740876409,1
angle,4,117,8,90,0.4,6,-0.5,equ,m,0.976078876734,1
angle,4,118,8,180,0.6,6,2.0,comp,left,0.62329529753,1
angle,4,119,8,180,0.0,6,-2.0,comp,right,0.599764357139,1
angle,4,120,8,270,0.4,6,2.0,equ,n,0.63501343218,1
angle,4,121,8,270,0.0,6,0.0,equ,n,0.705587089164,1
angle,4,122,8,90,0.0,6,1.0,equ,m,0.929072572097,1
angle,4,123,8,90,0.8,6,0.5,equ,n,0.729140643296,1
angle,4,124,8,180,0.0,6,2.0,comp,left,0.646805540597,1
angle,4,125,8,90,0.6,6,2.0,comp,down,1.1289619564,1
angle,4,126,8,0,0.4,6,1.0,equ,n,0.658539389879,1
angle,4,127,8,90,0.4,6,-1.0,comp,up,0.62330871246,1
angle,4,128,8,180,0.6,6,1.0,comp,left,0.623297213948,1
angle,4,129,8,90,0.4,6,2.0,comp,down,1.03488802173,1
angle,4,130,8,270,0.2,6,2.0,comp,up,0.6232535196,1
angle,4,131,8,0,0.4,6,-1.5,equ,n,0.811419019996,1
angle,4,132,8,270,0.4,6,0.0,equ,n,1.01135593149,1
angle,4,133,8,180,0.6,6,0.0,comp,left,0.588021692329,1
angle,4,134,8,90,0.6,6,1.5,comp,down,0.917309209966,1
angle,4,135,8,90,0.6,6,-1.5,equ,n,0.740902855578,1
angle,4,136,8,180,0.0,6,1.0,comp,left,0.740853795258,1
angle,4,137,8,270,0.0,6,-2.0,equ,n,0.635043711598,1
angle,4,138,8,270,0.6,6,-0.5,equ,m,1.15252394278,1
angle,4,139,8,270,0.2,6,-1.0,comp,down,1.08174522898,1
angle,4,140,8,270,0.6,6,0.5,comp,up,0.588017092923,1
angle,4,141,8,270,0.8,6,0.0,equ,m,1.1054808429,1
angle,4,142,8,180,0.8,6,-0.5,comp,right,1.83458622409,1
angle,4,143,8,270,0.0,6,-1.0,equ,n,0.964309765339,1
angle,4,144,8,0,0.8,6,1.5,equ,n,0.752668517416,1
angle,4,145,8,270,0.8,6,-0.5,equ,n,0.799661023833,1
angle,4,146,8,180,0.0,6,0.5,equ,m,1.69344925879,1
angle,4,147,8,180,0.8,6,1.0,comp,left,0.940795689436,1
angle,4,148,8,270,0.4,6,-2.0,comp,up,1.04665866626,1
angle,4,149,8,0,0.2,6,-0.5,comp,left,0.799707401169,1
angle,4,150,8,90,0.0,6,2.0,equ,n,0.82318238213,1
angle,4,151,8,270,0.0,6,2.0,equ,n,1.55233988991,1
angle,4,152,8,90,0.4,6,1.0,comp,down,0.917262066061,1
angle,4,153,8,90,0.0,6,-1.0,comp,up,0.63504486145,1
angle,4,154,8,0,0.2,6,1.5,equ,n,0.635036045922,1
angle,4,155,8,270,0.6,6,-1.0,comp,up,2.69331702589,1
angle,4,156,8,180,0.6,6,-1.5,comp,right,0.78791797574,1
angle,4,157,8,90,0.4,6,0.5,comp,down,0.905532049615,1
angle,4,158,8,0,0.8,6,0.5,equ,n,0.717401044752,1
angle,4,159,8,270,0.0,6,1.0,equ,n,1.32889005237,1
angle,4,160,8,270,0.2,6,-2.0,equ,n,0.658563536759,1
angle,4,161,8,270,0.4,6,1.0,equ,m,0.893778652855,1
angle,4,162,8,0,0.6,6,-1.5,equ,n,0.623274216923,1
angle,4,163,8,0,0.2,6,0.0,comp,right,1.04668013015,1
angle,4,164,8,180,0.4,6,1.0,comp,left,0.881997276385,1
angle,4,165,8,90,0.0,6,-0.5,equ,n,0.729097332231,1
angle,4,166,8,270,0.4,6,-2.0,equ,n,0.635046011303,1
angle,4,167,8,90,0.2,6,1.5,equ,m,0.846712555955,1
angle,4,168,8,180,0.0,6,1.0,equ,n,0.905520934386,1
angle,4,169,8,270,0.8,6,0.5,equ,m,0.917297328167,1
angle,4,170,8,270,0.0,6,-1.0,comp,up,0.56451336568,1
angle,4,171,8,270,0.8,6,0.0,comp,up,0.729116113136,1
angle,4,172,8,270,0.4,6,-1.0,comp,down,0.799686320566,1
angle,4,173,8,0,0.0,6,-1.5,equ,n,0.776046910869,1
angle,4,174,8,180,0.4,6,-0.5,equ,n,0.846725204319,1
angle,4,175,8,0,0.0,6,-1.0,equ,m,1.08194836938,1
angle,4,176,8,90,0.8,6,2.0,comp,down,1.11720396024,1
angle,4,177,8,180,0.0,6,1.5,comp,left,0.740897872893,1
angle,4,178,8,90,0.2,6,1.5,comp,down,0.834933095903,1
angle,4,179,8,90,0.8,6,-0.5,equ,n,0.646801324478,1
angle,4,180,8,0,0.2,6,-1.0,comp,left,0.729124928661,1
angle,4,181,8,0,0.4,6,2.0,comp,right,0.587991412911,1
angle,4,182,8,0,0.6,6,0.0,equ,m,1.32891918193,1
angle,4,183,8,180,0.8,6,-1.0,equ,n,0.893758722101,1
angle,4,184,8,90,0.0,6,2.0,comp,down,0.846711022819,1
angle,4,185,8,90,0.2,6,1.0,comp,up,0.71733013726,1
angle,4,186,8,180,0.4,6,0.0,equ,n,0.917296178315,1
angle,4,187,8,90,0.4,6,1.0,equ,n,0.6585413063,1
angle,4,188,8,90,0.6,6,-0.5,equ,m,0.834978706669,1
angle,4,189,8,0,0.2,6,0.5,equ,n,0.599845996581,1
angle,4,190,8,0,0.4,6,0.0,equ,m,0.999630131166,1
angle,4,191,8,0,0.4,6,-0.5,comp,left,0.964299416679,1
angle,4,192,8,0,0.8,6,-1.5,comp,right,0.740901322442,1
angle,4,193,8,180,0.6,6,-1.5,equ,m,1.04666518208,1
angle,4,194,8,180,0.2,6,-0.5,comp,right,1.05844885826,1
angle,4,195,8,0,0.6,6,1.0,comp,right,0.905520934386,1
angle,4,196,8,90,0.0,6,-1.5,comp,up,0.893764854642,1
angle,4,197,8,180,0.2,6,-1.0,comp,right,0.976218775308,1
angle,4,198,8,0,0.8,6,-1.5,equ,n,1.52865946885,1
angle,4,199,8,0,0.8,6,0.0,equ,n,0.56445357341,1
angle,4,200,8,270,0.4,6,0.5,equ,n,0.611516220764,1
angle,4,201,8,0,0.2,6,2.0,comp,right,0.717385713404,1
angle,4,202,8,0,0.2,6,1.0,comp,right,0.858508497211,1
angle,4,203,8,90,0.6,6,-1.0,equ,n,0.705589388865,1
angle,4,204,8,180,0.8,6,1.5,comp,left,1.57587427986,1
angle,4,205,8,270,0.0,6,1.0,comp,down,0.85847400167,1
angle,4,206,8,90,0.8,6,1.0,equ,m,0.964338128339,1
angle,4,207,8,180,0.8,6,0.0,equ,n,0.752643220687,1
angle,4,208,8,180,0.2,6,0.5,equ,m,0.917265898897,1
angle,4,209,8,270,0.8,6,1.5,equ,n,0.646797108355,1
angle,4,210,8,90,0.2,6,-1.0,comp,up,0.670328815311,1
angle,4,211,8,90,0.8,6,-0.5,comp,up,0.646815122691,1
angle,4,212,8,180,0.8,6,-1.5,equ,n,1.91684275362,1
angle,4,213,8,270,0.4,6,2.0,comp,up,0.69385822257,1
angle,4,214,8,0,0.6,6,1.5,equ,n,0.599732927869,1
angle,4,215,8,180,0.2,6,-0.5,equ,n,0.917289662491,1
angle,4,216,8,0,0.2,6,0.0,equ,n,0.564494584774,1
angle,4,217,8,180,0.2,6,2.0,comp,left,1.28182893815,1
angle,4,218,8,0,0.8,6,1.5,comp,right,0.564520648073,1
angle,4,219,8,90,0.8,6,0.0,comp,down,0.870263810386,1
angle,4,220,8,0,0.8,6,0.5,comp,right,0.870221265886,1
angle,4,221,8,180,0.0,6,-0.5,equ,m,1.0348746068,1
angle,4,222,8,270,0.2,6,-0.5,equ,n,0.834975257116,1
angle,4,223,8,0,0.8,6,-2.0,equ,n,0.823232975592,1
angle,4,224,8,180,0.0,6,-1.0,equ,n,0.787901494536,1
angle,4,225,8,0,0.6,6,-1.0,comp,right,0.87025614471,1
angle,4,226,8,180,0.2,6,0.0,equ,n,0.752645520392,1
angle,4,227,8,180,0.8,6,0.5,comp,left,0.635041411897,1
angle,4,228,8,180,0.2,6,1.5,equ,n,0.587968799169,1
angle,4,229,8,180,0.4,6,-1.5,comp,right,0.787886929756,1
angle,4,230,8,270,0.2,6,-0.5,comp,up,1.49353726074,1
angle,4,231,8,90,0.6,6,0.0,equ,m,1.03489453756,1
angle,4,232,8,0,0.0,6,1.0,comp,right,0.540982042006,1
angle,4,233,8,0,0.0,6,0.5,equ,m,1.65821283211,1
angle,4,234,8,90,0.2,6,2.0,comp,down,0.987825374381,1
angle,4,235,8,270,0.4,6,-0.5,equ,n,0.658585000649,1
angle,4,236,8,90,0.6,6,0.0,comp,up,0.776150397483,1
angle,4,237,8,0,0.6,6,1.5,comp,right,0.729149075538,1
angle,4,238,8,270,0.6,6,-2.0,equ,n,2.43433984929,1
angle,4,239,8,180,0.2,6,-2.0,comp,right,0.752627506055,1
angle,4,240,8,0,0.8,6,-0.5,comp,right,0.776139282258,1
angle,4,241,8,90,0.8,6,2.0,equ,n,0.752615240974,1
angle,4,242,8,180,0.4,6,1.0,equ,n,0.999585670248,1
angle,4,243,8,180,0.8,6,-1.5,comp,right,0.834948427251,1
angle,4,244,8,0,0.4,6,1.5,comp,right,0.635061342651,1
angle,4,245,8,0,0.2,6,-2.0,equ,n,1.58762844318,1
angle,4,246,8,270,0.4,6,-1.5,equ,n,0.764377453255,1
angle,4,247,8,0,0.0,6,0.0,equ,m,0.976089608681,1
angle,4,248,8,0,0.2,6,-2.0,comp,left,0.799711617292,1
angle,4,249,8,0,0.4,6,-1.0,comp,left,0.929053024625,1
angle,4,250,8,90,0.4,6,1.5,equ,n,0.576238399437,1
angle,4,251,8,90,0.0,6,0.5,equ,m,0.846737469401,1
angle,4,252,8,0,0.0,6,2.0,equ,n,0.623281882596,1
angle,4,253,8,90,0.2,6,2.0,equ,n,0.741148540474,1
angle,4,254,8,0,0.6,6,0.5,comp,right,0.635029913381,1
angle,4,255,8,270,0.6,6,2.0,equ,n,0.611512387924,1
angle,4,256,8,90,0.0,6,0.0,comp,up,0.811449682697,1
angle,4,257,8,0,0.4,6,0.5,equ,n,0.599779688491,1
angle,4,258,8,180,0.4,6,0.0,comp,right,0.811468080319,1
angle,4,259,8,0,0.4,6,1.0,comp,right,0.599752475344,1
angle,4,260,8,0,0.8,6,-1.0,comp,left,0.599762057438,1
angle,4,261,8,270,0.2,6,-2.0,comp,down,0.987829207221,1
angle,4,262,8,0,0.0,6,-2.0,comp,left,0.623284565583,1
angle,4,263,8,270,0.8,6,-2.0,comp,up,0.587984130518,1
angle,4,264,8,180,0.4,6,-1.0,equ,n,0.61152733599,1
angle,4,265,8,180,0.4,6,0.5,equ,m,1.05838676629,1
angle,4,266,8,0,0.8,6,0.0,comp,right,0.776079873271,1
angle,4,267,8,0,0.2,6,1.5,comp,right,4.17487513573,1
angle,4,268,8,270,0.0,6,-1.5,equ,n,0.740877558848,1
angle,4,269,8,180,0.4,6,1.5,equ,n,0.834992504886,1
angle,4,270,8,180,0.2,6,-2.0,equ,n,1.01136972971,1
angle,4,271,8,90,0.0,6,1.5,comp,down,0.917287746073,1
angle,4,272,8,90,0.0,6,1.0,comp,down,1.23477548961,1
angle,4,273,8,0,0.4,6,-2.0,equ,n,0.787916442605,1
angle,4,274,8,90,0.6,6,0.5,comp,up,0.917283146668,1
angle,4,275,8,90,0.4,6,0.0,equ,n,2.563691222,1
angle,4,276,8,0,0.8,6,1.0,comp,right,0.882009158184,1
angle,4,277,8,90,0.4,6,1.5,comp,down,1.54055928001,1
angle,4,278,8,180,0.0,6,0.5,comp,left,0.846710639536,1
angle,4,279,8,180,0.2,6,-1.0,equ,n,0.658538623313,1
angle,4,280,8,90,0.8,6,0.0,equ,n,0.834942677997,1
angle,4,281,8,270,0.0,6,-2.0,comp,down,0.79970625132,1
angle,4,282,8,0,0.4,6,0.0,comp,right,1.15250631173,1
angle,4,283,8,90,0.4,6,-2.0,comp,up,0.952567100532,1
angle,4,284,8,180,0.6,6,-0.5,equ,n,1.41135317184,1
angle,4,285,8,270,0.2,6,0.0,equ,m,0.976096507788,1
angle,4,286,8,90,0.6,6,-2.0,comp,up,0.846739769102,1
angle,4,287,8,180,0.4,6,-2.0,equ,n,0.564455106545,1
angle,4,288,8,180,0.8,6,-0.5,equ,m,0.823439565542,1
angle,4,289,8,0,0.4,6,1.5,equ,m,0.811466930467,1
angle,4,290,8,180,0.6,6,1.0,equ,m,0.693856689431,1
angle,4,291,8,270,0.6,6,1.0,comp,up,0.811466930467,1
angle,4,292,8,180,0.4,6,-0.5,comp,left,0.870225098726,1
angle,4,293,8,90,0.2,6,0.5,comp,down,2.44607791469,1
angle,4,294,8,270,0.2,6,-1.5,equ,n,1.81108288013,1
angle,4,295,8,270,0.0,6,-1.5,comp,down,0.787847068244,1
angle,4,296,8,0,0.6,6,-0.5,comp,left,0.764430729698,1
angle,4,297,8,180,0.6,6,-1.0,equ,n,0.705590922,1
angle,4,298,8,270,0.2,6,1.5,equ,n,0.705620434852,1
angle,4,299,8,180,0.6,6,1.5,comp,left,0.905540481857,1
angle,4,300,8,180,0.4,6,-2.0,comp,right,0.776144264946,1
angle,4,301,8,180,0.8,6,-1.0,comp,right,0.705599737525,1
angle,4,302,8,0,0.6,6,-1.5,comp,left,0.823211511699,1
angle,4,303,8,270,0.8,6,0.5,comp,down,1.30540625588,1
angle,4,304,8,270,0.6,6,0.0,comp,up,0.587974931706,1
angle,4,305,8,270,0.6,6,2.0,comp,up,0.681931198265,1
angle,4,306,8,270,0.8,6,1.0,comp,up,0.599755924897,1
angle,4,307,8,90,0.6,6,-1.0,comp,down,1.35240029544,1
angle,4,308,8,0,0.0,6,0.0,comp,right,0.96434004476,1
angle,4,309,8,180,0.4,6,2.0,comp,left,0.729149842107,1
angle,4,310,8,90,0.2,6,-2.0,comp,up,0.576277111097,1
angle,4,311,8,90,0.4,6,-2.0,equ,n,1.32888276998,1
angle,4,312,8,0,0.4,6,0.5,comp,right,0.717343168904,1
angle,4,313,8,0,0.4,6,-1.0,equ,n,0.823206912293,1
angle,4,314,8,0,0.0,6,1.5,comp,right,1.15249634635,1
angle,4,315,8,180,0.0,6,-1.5,comp,right,0.752591094097,1
angle,4,316,8,270,0.6,6,-1.5,comp,down,0.952582815164,1
angle,4,317,8,0,0.2,6,-1.5,equ,n,0.717402577891,1
angle,4,318,8,180,0.2,6,1.0,equ,m,1.02312082676,1
angle,4,319,8,0,0.2,6,0.5,comp,right,0.787891529162,1
angle,4,320,8,90,0.2,6,0.5,equ,m,0.917275864278,1
angle,4,321,8,180,0.2,6,0.5,comp,right,1.44650489281,1
angle,4,322,8,270,0.4,6,1.5,equ,n,1.30537252691,1
angle,4,323,8,270,0.2,6,0.5,equ,m,0.940799138993,1
angle,4,324,8,270,0.6,6,-0.5,comp,down,2.42260676657,1
angle,4,325,8,90,0.6,6,1.0,comp,up,1.034862725,1
angle,4,326,8,180,0.2,6,1.0,comp,left,0.917306143696,1
angle,4,327,8,0,0.8,6,-0.5,equ,m,1.22320568579,1
angle,4,328,8,180,0.0,6,-1.0,comp,right,0.729121479108,1
angle,4,329,8,0,0.0,6,1.0,equ,n,2.08154477157,1
angle,4,330,8,180,0.6,6,-2.0,comp,right,0.717324004716,1
angle,4,331,8,180,0.6,6,-1.0,comp,right,0.682099459838,1
angle,4,332,8,90,0.0,6,-2.0,equ,n,0.670353728758,1
angle,4,333,8,270,0.0,6,0.5,comp,down,1.22304547317,1
angle,4,334,8,90,0.6,6,-2.0,equ,n,0.77615729659,1
angle,4,335,8,0,0.2,6,-0.5,equ,n,1.36416825698,1
angle,4,336,8,0,0.4,6,-2.0,comp,right,0.693836758674,1
angle,4,337,8,180,0.6,6,1.5,equ,n,0.776193708552,1
angle,4,338,8,0,0.6,6,1.0,equ,n,0.57627327826,1
angle,4,339,8,270,0.0,6,1.5,equ,n,0.635009599344,1
angle,4,340,8,90,0.4,6,-1.5,equ,m,0.882006858479,1
angle,4,341,8,90,0.2,6,1.0,equ,n,0.588024758599,1
angle,4,342,8,90,0.2,6,-1.5,comp,down,1.30537252691,1
angle,4,343,8,90,0.4,6,-1.5,comp,up,1.02315800528,1
angle,4,344,8,0,0.2,6,2.0,equ,n,0.611521586732,1
angle,4,345,8,90,0.2,6,0.0,comp,up,1.8581071991,1
angle,4,346,8,90,0.2,6,-1.5,equ,m,0.999586436814,1
angle,4,347,8,270,0.2,6,-1.5,comp,down,0.976112988988,1
angle,4,348,8,90,0.8,6,-2.0,comp,up,0.799795939722,1
angle,4,349,8,270,0.6,6,-2.0,comp,down,1.07019688904,1
angle,4,350,8,90,0.8,6,-1.5,comp,up,0.658525591665,1
angle,4,351,8,90,0.0,6,0.5,comp,down,1.03487269038,1
angle,4,352,8,90,0.0,6,-1.0,equ,n,0.74089365677,1
angle,4,353,8,270,0.2,6,2.0,equ,n,0.752659701891,1
angle,4,354,8,0,0.0,6,-1.0,comp,right,0.764425747009,1
angle,4,355,8,90,0.0,6,1.5,equ,n,0.623270767366,1
angle,4,356,8,90,0.6,6,1.0,equ,n,0.705588239012,1
angle,4,357,8,270,0.6,6,1.5,comp,up,0.67029508634,1
angle,4,358,8,180,0.6,6,-2.0,equ,n,0.693849790325,1
angle,4,359,8,90,0.4,6,-1.0,equ,m,0.764398150579,1
angle,4,360,8,0,0.6,6,2.0,equ,n,0.623289164989,1
angle,5,1,8,0,0.4,6,0.0,comp,right,0.999608667273,1
angle,5,2,8,270,0.2,6,-1.0,equ,n,0.646802474326,1
angle,5,3,8,0,0.6,6,1.0,comp,left,1.04670810986,1
angle,5,4,8,180,0.0,6,0.5,comp,left,0.717347385027,1
angle,5,5,8,270,0.8,6,2.0,comp,up,0.599777388787,1
angle,5,6,8,270,0.0,6,0.5,equ,n,0.846706040131,1
angle,5,7,8,90,0.2,6,-2.0,equ,n,0.56450608329,1
angle,5,8,8,180,0.4,6,-2.0,comp,right,0.588002144854,1
angle,5,9,8,90,0.8,6,2.0,equ,n,0.729135660607,1
angle,5,10,8,270,0.2,6,0.0,equ,n,0.787954770982,1
angle,5,11,8,180,0.0,6,1.0,comp,left,0.787900344687,1
angle,5,12,8,90,0.4,6,-0.5,comp,up,0.599796936258,1
angle,5,13,8,270,0.6,6,-2.0,equ,n,0.540963261101,1
angle,5,14,8,270,0.0,6,1.5,equ,m,0.952592780544,1
angle,5,15,8,270,0.0,6,2.0,comp,down,1.12896770566,1
angle,5,16,8,180,0.2,6,-2.0,equ,n,0.587956534087,1
angle,5,17,8,270,0.6,6,-1.5,equ,m,0.917311126381,1
angle,5,18,8,270,0.2,6,-2.0,equ,n,0.611535384949,1
angle,5,19,8,180,0.2,6,1.0,comp,left,0.635052527123,1
angle,5,20,8,0,0.2,6,-0.5,comp,right,0.729122245673,1
angle,5,21,8,270,0.2,6,0.5,comp,down,2.09329740176,1
angle,5,22,8,270,0.0,6,-1.0,comp,down,1.70522871884,1
angle,5,23,8,90,0.0,6,0.0,comp,up,0.870249628886,1
angle,5,24,8,0,0.4,6,1.5,comp,right,0.764402749985,1
angle,5,25,8,180,0.0,6,-1.0,equ,n,0.56446047252,1
angle,5,26,8,270,0.6,6,-0.5,comp,down,1.07019267292,1
angle,5,27,8,180,0.0,6,-2.0,equ,n,0.517410473534,1
angle,5,28,8,270,0.6,6,2.0,equ,n,0.740887140946,1
angle,5,29,8,0,0.0,6,0.5,comp,right,0.682062281314,1
angle,5,30,8,90,0.2,6,-0.5,equ,n,1.95220144781,1
angle,5,31,8,180,0.0,6,-0.5,equ,n,0.893600042622,1
angle,5,32,8,180,0.8,6,1.5,comp,left,0.776069141324,1
angle,5,33,8,180,0.8,6,0.0,equ,m,1.05843697646,1
angle,5,34,8,0,0.0,6,0.0,equ,m,0.940835550948,1
angle,5,35,8,270,0.6,6,-2.0,comp,up,0.764372470567,1
angle,5,36,8,0,0.6,6,-2.0,comp,left,1.27006519273,1
angle,5,37,8,0,0.8,6,-2.0,comp,right,0.72910538119,1
angle,5,38,8,90,0.0,6,1.5,equ,n,0.576203137331,1
angle,5,39,8,270,0.6,6,0.0,equ,n,0.917281996815,1
angle,5,40,8,180,0.6,6,-2.0,equ,n,0.881985011303,1
angle,5,41,8,0,0.4,6,0.0,equ,m,0.717387246539,1
angle,5,42,8,270,0.2,6,0.0,comp,up,1.10542373362,1
angle,5,43,8,0,0.6,6,1.5,equ,n,0.599732161303,1
angle,5,44,8,270,0.8,6,-1.5,equ,m,0.893768687481,1
angle,5,45,8,90,0.2,6,-0.5,comp,down,1.10545516289,1
angle,5,46,8,0,0.2,6,0.0,comp,right,0.646774877896,1
angle,5,47,8,90,0.4,6,2.0,comp,down,0.929195606186,1
angle,5,48,8,180,0.2,6,-0.5,equ,m,1.34065226465,1
angle,5,49,8,270,0.8,6,1.0,comp,up,0.823204612592,1
angle,5,50,8,90,0.8,6,2.0,comp,up,0.623257352436,1
angle,5,51,8,90,0.2,6,0.5,comp,up,0.729421207016,1
angle,5,52,8,180,0.4,6,1.0,equ,n,0.646802857613,1
angle,5,53,8,0,0.4,6,0.5,comp,right,0.82317509974,1
angle,5,54,8,270,0.8,6,-2.0,equ,n,0.635065558774,1
angle,5,55,8,180,0.0,6,0.0,comp,right,0.623283415734,1
angle,5,56,8,0,0.4,6,1.0,equ,m,1.12895812357,1
angle,5,57,8,0,0.0,6,0.0,comp,left,0.964346177301,1
angle,5,58,8,90,0.2,6,1.5,comp,up,0.587990263059,1
angle,5,59,8,90,0.6,6,-1.0,comp,up,0.611528102556,1
angle,5,60,8,0,0.2,6,2.0,comp,right,0.623293764398,1
angle,5,61,8,180,0.2,6,0.0,comp,right,0.893761788371,1
angle,5,62,8,90,0.2,6,2.0,comp,up,1.41118222728,1
angle,5,63,8,90,0.6,6,-1.5,comp,down,1.023100896,1
angle,5,64,8,180,0.4,6,-1.0,comp,right,0.776186809442,1
angle,5,65,8,180,0.2,6,-1.0,comp,left,0.717357733687,1
angle,5,66,8,180,0.2,6,0.5,comp,left,0.893765621207,1
angle,5,67,8,270,0.4,6,-1.0,equ,n,0.635078973704,1
angle,5,68,8,270,0.0,6,-2.0,comp,down,0.835047697747,1
angle,5,69,8,180,0.6,6,1.5,equ,n,0.823203079453,1
angle,5,70,8,90,0.0,6,2.0,comp,down,2.26972560332,1
angle,5,71,8,270,0.2,6,-0.5,equ,n,0.764380902809,1
angle,5,72,8,0,0.2,6,2.0,equ,n,0.611524653003,1
angle,5,73,8,90,0.6,6,1.0,comp,down,0.987900881286,1
angle,5,74,8,180,0.8,6,0.5,equ,n,0.599736377422,1
angle,5,75,8,90,0.0,6,1.5,comp,down,1.16423671145,1
angle,5,76,8,270,0.2,6,-1.5,equ,n,0.811452365688,1
angle,5,77,8,0,0.6,6,1.5,comp,right,0.811440867172,1
angle,5,78,8,270,0.0,6,1.0,comp,up,1.14075866423,1
angle,5,79,8,180,0.8,6,-1.0,comp,left,3.13998979699,1
angle,5,80,8,180,0.4,6,-1.0,equ,n,0.858479367645,1
angle,5,81,8,0,0.8,6,0.0,equ,n,0.740894040053,1
angle,5,82,8,0,0.0,6,-2.0,equ,m,0.823203846023,1
angle,5,83,8,270,0.4,6,0.5,equ,n,0.834956859493,1
angle,5,84,8,0,0.0,6,1.5,equ,m,0.787896895134,1
angle,5,85,8,270,0.0,6,0.5,comp,down,3.05763284711,1
angle,5,86,8,90,0.8,6,-2.0,equ,n,0.576247598248,1
angle,5,87,8,180,0.8,6,1.0,equ,n,0.670311950827,1
angle,5,88,8,180,0.2,6,0.5,equ,m,0.95256901695,1
angle,5,89,8,270,0.0,6,-1.5,comp,down,1.84637641609,1
angle,5,90,8,0,0.8,6,-1.0,comp,left,0.823182382133,1
angle,5,91,8,180,0.0,6,2.0,equ,n,0.576239549289,1
angle,5,92,8,180,0.6,6,-2.0,comp,right,0.611512004638,1
angle,5,93,8,90,0.8,6,1.0,equ,n,1.83458392439,1
angle,5,94,8,180,0.0,6,0.0,equ,n,0.623279199612,1
angle,5,95,8,0,0.2,6,-2.0,equ,n,0.646806690445,1
angle,5,96,8,0,0.2,6,-1.5,equ,n,0.611514687625,1
angle,5,97,8,180,0.8,6,-1.5,comp,left,0.952602362639,1
angle,5,98,8,180,0.6,6,-1.5,equ,n,1.01138199478,1
angle,5,99,8,270,0.4,6,2.0,comp,up,0.646777944166,1
angle,5,100,8,0,0.8,6,-1.0,equ,n,0.717381113998,1
angle,5,101,8,180,0.2,6,0.0,equ,n,0.576261396465,1
angle,5,102,8,90,0.8,6,-2.0,comp,down,0.870223948874,1
angle,5,103,8,90,0.6,6,1.5,comp,down,0.776192941983,1
angle,5,104,8,0,0.4,6,-0.5,equ,n,1.0114099745,1
angle,5,105,8,270,0.8,6,-1.0,comp,down,0.929069889113,1
angle,5,106,8,0,0.6,6,-1.5,comp,left,1.63466924335,1
angle,5,107,8,90,0.2,6,-1.0,comp,up,0.576234949884,1
angle,5,108,8,270,0.8,6,1.5,equ,n,0.787906477228,1
angle,5,109,8,180,0.4,6,-1.5,equ,n,0.693806479259,1
angle,5,110,8,180,0.8,6,-0.5,equ,n,0.599765506991,1
angle,5,111,8,0,0.8,6,-0.5,equ,m,1.05843659318,1
angle,5,112,8,270,0.2,6,-2.0,comp,up,0.61154879988,1
angle,5,113,8,180,0.6,6,1.5,comp,left,0.799694369525,1
angle,5,114,8,0,0.2,6,0.0,equ,n,0.987847221557,1
angle,5,115,8,180,0.2,6,-0.5,comp,right,0.917260149639,1
angle,5,116,8,270,0.2,6,-0.5,comp,up,0.952557135155,1
angle,5,117,8,90,0.4,6,0.5,equ,m,0.893743774035,1
angle,5,118,8,180,0.2,6,-1.0,equ,n,0.846702590577,1
angle,5,119,8,270,0.8,6,1.0,equ,m,0.952598146516,1
angle,5,120,8,180,0.4,6,0.5,equ,m,0.846730570291,1
angle,5,121,8,180,0.0,6,-0.5,comp,right,0.940798372423,1
angle,5,122,8,90,0.8,6,-0.5,comp,up,1.55235253828,1
angle,5,123,8,270,0.4,6,1.5,equ,n,0.740861077647,1
angle,5,124,8,90,0.6,6,-1.5,equ,n,4.39830235953,1
angle,5,125,8,180,0.6,6,0.0,equ,m,1.21129897552,1
angle,5,126,8,180,0.8,6,-2.0,equ,n,0.83498790548,1
angle,5,127,8,180,0.0,6,-1.0,comp,right,0.870250012173,1
angle,5,128,8,270,0.0,6,-0.5,comp,down,0.976071977624,1
angle,5,129,8,0,0.2,6,1.0,equ,n,0.811451215832,1
angle,5,130,8,0,0.8,6,2.0,comp,right,0.870248862317,1
angle,5,131,8,270,0.6,6,-1.0,comp,down,0.8114496827,1
angle,5,132,8,90,0.8,6,0.5,comp,down,0.976091908382,1
angle,5,133,8,90,0.6,6,1.5,equ,n,1.34066261331,1
angle,5,134,8,270,0.2,6,1.0,equ,n,0.69383407569,1
angle,5,135,8,90,0.0,6,-0.5,equ,m,0.917266282184,1
angle,5,136,8,0,0.2,6,-1.0,comp,right,0.917306143696,1
angle,5,137,8,0,0.8,6,-0.5,comp,right,0.646743065343,1
angle,5,138,8,180,0.6,6,2.0,comp,left,0.799716216698,1
angle,5,139,8,180,0.8,6,0.0,comp,right,1.10545899573,1
angle,5,140,8,180,0.4,6,-1.5,comp,right,0.588017092923,1
angle,5,141,8,90,0.2,6,0.0,comp,down,1.18780138082,1
angle,5,142,8,180,0.6,6,1.0,comp,left,1.52884536148,1
angle,5,143,8,270,0.8,6,1.5,comp,up,1.30540663916,1
angle,5,144,8,270,0.8,6,-1.5,comp,down,0.776142348528,1
angle,5,145,8,270,0.4,6,-0.5,comp,down,0.99960828399,1
angle,5,146,8,270,0.8,6,-2.0,comp,down,0.823210361847,1
angle,5,147,8,90,0.6,6,2.0,comp,down,1.14074103317,1
angle,5,148,8,270,0.4,6,-0.5,equ,n,0.682088727892,1
angle,5,149,8,0,0.2,6,-1.0,equ,m,0.846735169696,1
angle,5,150,8,270,0.4,6,2.0,equ,n,0.764413098645,1
angle,5,151,8,180,0.6,6,-1.0,comp,right,0.929045358953,1
angle,5,152,8,90,0.0,6,-1.5,equ,m,0.976192712013,1
angle,5,153,8,0,0.2,6,-2.0,comp,right,1.01141955659,1
angle,5,154,8,270,0.4,6,0.0,comp,up,0.82321304483,1
angle,5,155,8,180,0.2,6,-1.5,equ,m,0.882058985073,1
angle,5,156,8,180,0.4,6,0.5,comp,left,0.976060095829,1
angle,5,157,8,180,0.0,6,-2.0,comp,left,1.72872056429,1
angle,5,158,8,270,0.6,6,0.5,equ,n,0.776168028537,1
angle,5,159,8,0,0.2,6,0.5,equ,n,0.752621756797,1
angle,5,160,8,270,0.4,6,0.5,comp,up,0.635023780844,1
angle,5,161,8,90,0.4,6,-1.5,equ,n,1.05841627913,1
angle,5,162,8,0,0.6,6,1.0,equ,m,0.964361508653,1
angle,5,163,8,0,0.8,6,-2.0,equ,n,0.823232592305,1
angle,5,164,8,180,0.6,6,2.0,equ,m,0.940793006448,1
angle,5,165,8,0,0.4,6,-2.0,equ,n,0.623328643218,1
angle,5,166,8,270,0.4,6,0.0,equ,m,0.811463097631,1
angle,5,167,8,270,0.2,6,2.0,comp,up,0.834939611726,1
angle,5,168,8,90,0.4,6,1.5,comp,down,1.04665176715,1
angle,5,169,8,90,0.0,6,-2.0,equ,n,0.61151008822,1
angle,5,170,8,0,0.0,6,1.5,comp,right,0.905524000656,1
angle,5,171,8,90,0.0,6,0.0,equ,m,1.1642474434,1
angle,5,172,8,0,0.8,6,-1.5,comp,left,0.976188879176,1
angle,5,173,8,90,0.2,6,1.0,comp,up,0.79968900355,1
angle,5,174,8,270,0.4,6,1.0,equ,m,1.04671615882,1
angle,5,175,8,270,0.8,6,0.5,equ,m,1.04665981611,1
angle,5,176,8,0,0.8,6,1.5,equ,n,0.893781719129,1
angle,5,177,8,180,0.0,6,2.0,comp,left,0.834964525173,1
angle,5,178,8,0,0.4,6,1.0,comp,right,0.635039495475,1
angle,5,179,8,180,0.0,6,1.5,comp,left,1.0467498877900001,1
angle,5,180,8,180,0.6,6,-0.5,comp,left,0.999607900707,1
angle,5,181,8,180,0.4,6,1.5,equ,n,1.05840133107,1
angle,5,182,8,90,0.6,6,2.0,equ,n,1.04666326566,1
angle,5,183,8,0,0.0,6,2.0,comp,right,0.611516220761,1
angle,5,184,8,270,0.8,6,-0.5,equ,n,0.764438012091,1
angle,5,185,8,180,0.2,6,-2.0,comp,left,0.752626739486,1
angle,5,186,8,90,0.8,6,-1.5,comp,down,0.905508286021,1
angle,5,187,8,270,0.0,6,0.0,comp,up,0.576259096761,1
angle,5,188,8,180,0.0,6,0.5,equ,n,0.740889440647,1
angle,5,189,8,180,0.6,6,0.5,comp,left,0.682062664597,1
angle,5,190,8,180,0.8,6,-2.0,comp,left,0.870257677845,1
angle,5,191,8,90,0.6,6,-0.5,equ,n,0.611520053597,1
angle,5,192,8,90,0.6,6,-1.0,equ,n,0.68211172492,1
angle,5,193,8,270,0.8,6,2.0,equ,m,0.799711617292,1
angle,5,194,8,0,0.0,6,-0.5,comp,left,0.82313715465,1
angle,5,195,8,0,0.4,6,-1.5,comp,left,0.611675283522,1
angle,5,196,8,180,0.6,6,1.0,equ,m,0.893782485695,1
angle,5,197,8,0,0.0,6,2.0,equ,m,0.976089608681,1
angle,5,198,8,270,0.4,6,-1.0,comp,down,0.811415570442,1
angle,5,199,8,90,0.8,6,1.5,comp,up,0.940807954517,1
angle,5,200,8,0,0.8,6,0.0,comp,right,0.82321687767,1
angle,5,201,8,270,0.0,6,-0.5,equ,n,0.740877558852,1
angle,5,202,8,270,0.8,6,0.0,comp,up,1.15249059709,1
angle,5,203,8,270,0.6,6,0.0,comp,up,1.03487192381,1
angle,5,204,8,90,0.8,6,0.0,comp,down,0.893829246314,1
angle,5,205,8,180,0.4,6,0.0,comp,right,0.752628655904,1
angle,5,206,8,0,0.4,6,0.5,equ,m,1.50530368914,1
angle,5,207,8,90,0.2,6,0.5,equ,n,0.787955154265,1
angle,5,208,8,270,0.8,6,-0.5,comp,down,0.76442881328,1
angle,5,209,8,270,0.6,6,-1.0,equ,n,0.576226134359,1
angle,5,210,8,180,0.0,6,1.0,equ,n,0.705603953651,1
angle,5,211,8,270,0.4,6,1.5,comp,down,0.77616841182,1
angle,5,212,8,0,0.6,6,0.0,comp,left,0.752608341867,1
angle,5,213,8,90,0.0,6,-1.0,equ,n,0.646810140002,1
angle,5,214,8,270,0.0,6,-2.0,equ,n,0.705591688566,1
angle,5,215,8,90,0.8,6,0.0,equ,m,0.94082635214,1
angle,5,216,8,270,0.6,6,1.5,comp,up,0.611533851814,1
angle,5,217,8,0,0.8,6,1.0,equ,n,0.787952087998,1
angle,5,218,8,270,0.6,6,-1.5,comp,down,1.16423441175,1
angle,5,219,8,180,0.6,6,-1.5,comp,left,0.846724821036,1
angle,5,220,8,180,0.8,6,-0.5,comp,right,0.799692453103,1
angle,5,221,8,270,0.0,6,1.0,equ,m,0.940832867964,1
angle,5,222,8,270,0.4,6,-2.0,comp,down,0.787896511851,1
angle,5,223,8,180,0.0,6,-1.5,equ,n,1.0583982648,1
angle,5,224,8,180,0.2,6,-1.5,comp,right,0.8703082713,1
angle,5,225,8,0,0.4,6,2.0,equ,m,0.96436150865,1
angle,5,226,8,270,0.2,6,0.5,equ,m,1.34041769498,1
angle,5,227,8,90,0.0,6,0.5,comp,down,1.77578206178,1
angle,5,228,8,90,0.2,6,-1.0,equ,n,0.623265784681,1
angle,5,229,8,0,0.0,6,0.5,equ,m,0.705584789463,1
angle,5,230,8,0,0.0,6,1.0,comp,right,0.964310148629,1
angle,5,231,8,90,0.4,6,1.0,comp,down,1.41125620105,1
angle,5,232,8,180,0.6,6,-0.5,equ,n,0.799668306227,1
angle,5,233,8,90,0.0,6,-1.5,comp,up,0.752629805756,1
angle,5,234,8,180,0.4,6,1.5,comp,left,0.846740918951,1
angle,5,235,8,0,0.6,6,0.5,comp,right,0.799669072796,1
angle,5,236,8,0,0.6,6,-0.5,comp,left,0.682098309986,1
angle,5,237,8,90,0.2,6,-1.5,equ,n,0.611526186141,1
angle,5,238,8,90,0.6,6,-0.5,comp,up,0.893766387777,1
angle,5,239,8,0,0.2,6,1.0,comp,right,0.940789173612,1
angle,5,240,8,90,0.4,6,-0.5,equ,n,0.682073013257,1
angle,5,241,8,90,0.2,6,1.5,equ,n,0.682112108203,1
angle,5,242,8,270,0.8,6,-1.0,equ,n,0.893802799732,1
angle,5,243,8,0,0.8,6,1.5,comp,right,0.752643987253,1
angle,5,244,8,0,0.2,6,-0.5,equ,n,0.646809373437,1
angle,5,245,8,270,0.0,6,2.0,equ,n,0.658536706895,1
angle,5,246,8,90,0.2,6,2.0,equ,n,0.599762440721,1
angle,5,247,8,0,0.4,6,-2.0,comp,left,0.635054060258,1
angle,5,248,8,90,0.0,6,-1.0,comp,up,0.540988174547,1
angle,5,249,8,90,0.4,6,-1.0,equ,m,1.03490373636,1
angle,5,250,8,0,0.2,6,0.5,comp,right,1.07014936185,1
angle,5,251,8,180,0.4,6,-0.5,equ,n,0.740888290798,1
angle,5,252,8,270,0.2,6,1.0,comp,down,0.658568136165,1
angle,5,253,8,0,0.6,6,0.0,equ,n,1.4112220888,1
angle,5,254,8,90,0.4,6,0.5,comp,up,0.705585556025,1
angle,5,255,8,270,0.0,6,0.0,equ,m,0.776177993917,1
angle,5,256,8,90,0.6,6,1.0,equ,m,0.611545733609,1
angle,5,257,8,90,0.6,6,-2.0,equ,n,0.799695136091,1
angle,5,258,8,90,0.0,6,0.5,equ,m,0.823180465712,1
angle,5,259,8,270,0.8,6,0.0,equ,m,1.19955746056,1
angle,5,260,8,90,0.4,6,-2.0,comp,down,1.11740211795,1
angle,5,261,8,270,0.8,6,0.5,comp,up,0.564501100598,1
angle,5,262,8,90,0.4,6,2.0,equ,n,5.16272772326,1
angle,5,263,8,0,0.4,6,-1.0,equ,n,1.08195910132,1
angle,5,264,8,270,0.0,6,-1.0,equ,n,0.764368254448,1
angle,5,265,8,0,0.2,6,-1.5,comp,left,0.987846071705,1
angle,5,266,8,270,0.6,6,1.0,equ,n,1.1525565219,1
angle,5,267,8,90,0.4,6,-1.5,comp,up,1.03499994059,1
angle,5,268,8,90,0.8,6,-1.5,equ,n,0.764461392402,1
angle,5,269,8,180,0.2,6,2.0,equ,n,0.658531724206,1
angle,5,270,8,0,0.8,6,0.5,comp,left,0.682123606715,1
angle,5,271,8,90,0.8,6,1.5,equ,m,1.17601732136,1
angle,5,272,8,90,0.8,6,1.0,comp,up,0.705557193032,1
angle,5,273,8,270,0.2,6,-1.5,comp,down,1.04664218505,1
angle,5,274,8,0,0.6,6,-1.0,comp,right,0.77614388166,1
angle,5,275,8,180,0.8,6,1.0,comp,left,3.04589363186,1
angle,5,276,8,270,0.2,6,2.0,equ,n,0.646799408056,1
angle,5,277,8,90,0.4,6,-1.0,comp,up,0.729157507783,1
angle,5,278,8,270,0.0,6,1.5,comp,down,0.81145696509,1
angle,5,279,8,0,0.6,6,-1.0,equ,n,0.7056051035,1
angle,5,280,8,0,0.0,6,-1.5,comp,left,0.752665067863,1
angle,5,281,8,90,0.6,6,0.5,comp,up,0.63502378084,1
angle,5,282,8,0,0.8,6,2.0,equ,m,1.15249442993,1
angle,5,283,8,90,0.4,6,-2.0,equ,m,0.870275692181,1
angle,5,284,8,0,0.0,6,-1.5,equ,m,0.882021039979,1
angle,5,285,8,90,0.0,6,1.0,comp,up,0.893768687481,1
angle,5,286,8,0,0.8,6,1.0,comp,left,0.776164962266,1
angle,5,287,8,180,0.4,6,-2.0,equ,n,1.38773177649,1
angle,5,288,8,90,0.6,6,0.0,comp,up,1.10547011096,1
angle,5,289,8,0,0.6,6,-1.5,equ,n,1.21129744238,1
angle,5,290,8,0,0.0,6,-2.0,comp,right,0.705586322594,1
angle,5,291,8,180,0.4,6,0.0,equ,n,0.72911572985,1
angle,5,292,8,0,0.4,6,-1.0,comp,right,0.729124545378,1
angle,5,293,8,180,0.6,6,-1.0,equ,n,0.68206304788,1
angle,5,294,8,90,0.2,6,1.0,equ,n,0.599634423943,1
angle,5,295,8,90,0.8,6,-0.5,equ,m,0.987849521262,1
angle,5,296,8,0,0.0,6,-1.0,equ,n,0.929048425223,1
angle,5,297,8,270,0.0,6,-1.5,equ,m,0.717385713404,1
angle,5,298,8,180,0.8,6,2.0,equ,n,0.987920428757,1
angle,5,299,8,90,0.0,6,2.0,equ,m,0.69380954553,1
angle,5,300,8,90,0.6,6,-2.0,comp,up,0.870248862317,1
angle,5,301,8,0,0.6,6,0.5,equ,m,0.91730882668,1
angle,5,302,8,180,0.0,6,-1.5,comp,right,1.01137509568,1
angle,5,303,8,0,0.4,6,-0.5,comp,left,0.823191580941,1
angle,5,304,8,270,0.6,6,1.0,comp,up,0.588012876804,1
angle,5,305,8,270,0.6,6,0.5,comp,up,0.870217816333,1
angle,5,306,8,180,0.8,6,0.5,comp,left,0.658601098567,1
angle,5,307,8,270,0.2,6,-1.0,comp,up,0.999604834436,1
angle,5,308,8,180,0.2,6,1.5,equ,n,0.576238399437,1
angle,5,309,8,180,0.4,6,1.0,comp,left,0.717349684732,1
angle,5,310,8,90,0.0,6,-2.0,comp,up,0.635045244733,1
angle,5,311,8,180,0.8,6,1.5,equ,n,0.752620990232,1
angle,5,312,8,0,0.6,6,-2.0,equ,n,0.729112280296,1
angle,5,313,8,270,0.6,6,1.5,equ,m,2.06979597422,1
angle,5,314,8,90,0.8,6,-1.0,equ,n,0.705624650971,1
angle,5,315,8,270,0.2,6,1.5,equ,m,0.952592013979,1
angle,5,316,8,90,0.6,6,0.0,equ,n,0.811448149565,1
angle,5,317,8,0,0.0,6,-0.5,equ,n,0.740878325418,1
angle,5,318,8,90,0.4,6,1.5,equ,n,0.588022458895,1
angle,5,319,8,90,0.4,6,0.0,comp,down,1.08191310727,1
angle,5,320,8,180,0.4,6,2.0,comp,left,1.35242022619,1
angle,5,321,8,0,0.2,6,1.5,comp,right,0.917309209963,1
angle,5,322,8,90,0.4,6,1.0,equ,m,0.964339661474,1
angle,5,323,8,90,0.8,6,0.5,equ,m,0.611487857765,1
angle,5,324,8,180,0.6,6,0.0,comp,right,1.18776305244,1
angle,5,325,8,180,0.6,6,0.5,equ,n,0.588040856517,1
angle,5,326,8,180,0.8,6,-1.5,equ,n,0.776141581959,1
angle,5,327,8,90,0.8,6,-1.0,comp,up,0.811459264794,1
angle,5,328,8,90,0.2,6,-1.5,comp,up,0.705613919028,1
angle,5,329,8,180,0.0,6,1.5,equ,m,0.905528983345,1
angle,5,330,8,0,0.0,6,-1.0,comp,left,0.881978878766,1
angle,5,331,8,180,0.2,6,1.0,equ,n,0.552719724124,1
angle,5,332,8,0,0.4,6,1.5,equ,n,0.587992562763,1
angle,5,333,8,270,0.6,6,-0.5,equ,m,0.976085009275,1
angle,5,334,8,180,0.4,6,-0.5,comp,left,3.50452255682,1
angle,5,335,8,0,0.4,6,2.0,comp,right,1.34063655002,1
angle,5,336,8,0,0.0,6,1.0,equ,n,0.529157354467,1
angle,5,337,8,90,0.2,6,-2.0,comp,up,0.623231672427,1
angle,5,338,8,0,0.8,6,0.5,equ,n,0.599779305205,1
angle,5,339,8,270,0.2,6,1.5,comp,up,1.07020877084,1
angle,5,340,8,180,0.8,6,-1.0,equ,m,0.952583581733,1
angle,5,341,8,90,0.6,6,0.5,equ,m,0.68206994699,1
angle,5,342,8,270,0.4,6,1.0,comp,down,0.96436150865,1
angle,5,343,8,270,0.6,6,2.0,comp,up,1.14073720033,1
angle,5,344,8,270,0.4,6,-1.5,comp,down,0.940839383788,1
angle,5,345,8,90,0.2,6,0.0,equ,n,1.27007707453,1
angle,5,346,8,0,0.6,6,2.0,comp,right,0.658539773165,1
angle,5,347,8,0,0.6,6,-0.5,equ,m,0.870248095747,1
angle,5,348,8,180,0.4,6,2.0,equ,n,0.823162834658,1
angle,5,349,8,180,0.8,6,2.0,comp,left,0.752619457093,1
angle,5,350,8,90,0.0,6,-0.5,comp,up,0.811410587754,1
angle,5,351,8,90,0.0,6,1.0,equ,n,0.658560470489,1
angle,5,352,8,270,0.4,6,-2.0,equ,m,0.787952471277,1
angle,5,353,8,0,0.6,6,2.0,equ,n,0.611557998691,1
angle,5,354,8,180,0.2,6,1.5,comp,left,0.729156357927,1
angle,5,355,8,270,0.4,6,-1.5,equ,m,1.08190582488,1
angle,5,356,8,90,0.4,6,0.0,equ,m,1.01136589687,1
angle,5,357,8,0,0.8,6,-1.5,equ,m,0.87022778171,1
angle,5,358,8,180,0.2,6,2.0,comp,left,0.693819510907,1
angle,5,359,8,0,0.2,6,1.5,equ,n,0.611523119867,1
angle,5,360,8,0,0.4,6,-1.5,equ,n,0.599767806692,1
angle,6,1,8,270,0.6,6,1.5,comp,up,1.41123205418,1
angle,6,2,8,90,0.8,6,-1.5,equ,n,1.49352077954,1
angle,6,3,8,270,0.2,6,1.5,comp,up,1.22304432332,1
angle,6,4,8,270,0.2,6,-1.0,equ,n,0.882024106249,1
angle,6,5,8,270,0.2,6,-1.0,comp,down,1.04669967762,1
angle,6,6,8,180,0.6,6,1.0,comp,right,0.999634730568,1
angle,6,7,8,180,0.0,6,-0.5,equ,n,0.776099804028,1
angle,6,8,8,0,0.8,6,-0.5,equ,n,0.693811078665,1
angle,6,9,8,180,0.8,6,1.0,equ,n,0.658536706895,1
angle,6,10,8,270,0.2,6,0.5,comp,up,0.717372298473,1
angle,6,11,8,180,0.8,6,0.5,comp,left,0.976106473165,1
angle,6,12,8,270,0.0,6,1.0,equ,n,1.22306425407,1
angle,6,13,8,0,0.2,6,-2.0,equ,n,0.75259760992,1
angle,6,14,8,90,0.0,6,1.0,equ,m,1.18776841841,1
angle,6,15,8,0,0.2,6,0.5,equ,m,1.14074678243,1
angle,6,16,8,270,0.8,6,-1.0,equ,n,0.811401388943,1
angle,6,17,8,180,0.8,6,-2.0,comp,right,0.740892506918,1
angle,6,18,8,0,0.0,6,1.0,equ,n,0.599667769631,1
angle,6,19,8,180,0.8,6,0.5,equ,n,0.658551271681,1
angle,6,20,8,0,0.4,6,1.0,comp,right,0.670296619475,1
angle,6,21,8,90,0.4,6,0.0,equ,n,1.84630512531,1
angle,6,22,8,0,0.0,6,1.5,equ,n,1.04664371819,1
angle,6,23,8,90,0.6,6,-2.0,equ,n,0.776178760483,1
angle,6,24,8,90,0.6,6,-0.5,comp,up,1.64656138884,1
angle,6,25,8,90,0.8,6,-2.0,comp,up,0.693827943149,1
angle,6,26,8,270,0.4,6,-2.0,equ,n,0.776159596295,1
angle,6,27,8,270,0.4,6,-1.0,equ,n,0.646805157314,1
angle,6,28,8,90,0.4,6,0.0,comp,down,0.940774608829,1
angle,6,29,8,270,0.8,6,-1.5,comp,up,0.717356967125,1
angle,6,30,8,0,0.6,6,-0.5,equ,n,0.811475745995,1
angle,6,31,8,270,0.0,6,-1.0,comp,up,2.66952660239,1
angle,6,32,8,90,0.4,6,2.0,equ,m,1.04663375281,1
angle,6,33,8,270,0.8,6,0.5,equ,n,0.693831009419,1
angle,6,34,8,180,0.4,6,-1.5,equ,n,0.646798258207,1
angle,6,35,8,90,0.6,6,-1.5,comp,up,0.693838291812,1
angle,6,36,8,180,0.0,6,2.0,equ,n,0.658581551095,1
angle,6,37,8,270,0.6,6,-1.0,comp,up,0.811430518512,1
angle,6,38,8,0,0.0,6,-2.0,equ,n,1.27004181243,1
angle,6,39,8,0,0.2,6,1.0,equ,n,0.85847400167,1
angle,6,40,8,0,0.2,6,2.0,comp,right,2.90477314775,1
angle,6,41,8,180,0.6,6,1.0,equ,n,0.552725856669,1
angle,6,42,8,90,0.0,6,-2.0,equ,m,0.999622082207,1
angle,6,43,8,180,0.4,6,1.5,equ,m,0.976085009275,1
angle,6,44,8,270,0.0,6,2.0,comp,up,0.952564417545,1
angle,6,45,8,0,0.0,6,-0.5,equ,n,0.658542839436,1
angle,6,46,8,270,0.4,6,-0.5,equ,n,1.4700404326,1
angle,6,47,8,0,0.6,6,1.0,equ,n,0.587997928731,1
angle,6,48,8,180,0.8,6,-1.0,comp,left,0.846741302237,1
angle,6,49,8,0,0.4,6,-1.0,comp,right,0.85863881369,1
angle,6,50,8,0,0.6,6,-2.0,equ,n,0.693831392706,1
angle,6,51,8,180,0.8,6,-1.5,comp,left,1.65817105418,1
angle,6,52,8,90,0.8,6,1.5,equ,n,0.658495695534,1
angle,6,53,8,90,0.6,6,1.5,comp,down,1.05838140031,1
angle,6,54,8,0,0.4,6,-1.0,equ,m,1.17616143606,1
angle,6,55,8,90,0.8,6,-0.5,equ,n,0.917262066057,1
angle,6,56,8,270,0.2,6,-0.5,equ,m,1.08195105236,1
angle,6,57,8,180,0.6,6,-2.0,equ,n,0.682076462814,1
angle,6,58,8,0,0.8,6,0.0,comp,left,0.870238513657,1
angle,6,59,8,180,0.0,6,1.5,equ,n,0.81141442059,1
angle,6,60,8,90,0.8,6,0.0,equ,m,0.905521317669,1
angle,6,61,8,0,0.4,6,0.5,equ,m,0.893743007469,1
angle,6,62,8,0,0.8,6,-2.0,comp,left,0.929046508802,1
angle,6,63,8,270,0.2,6,0.0,comp,up,2.4225941182,1
angle,6,64,8,270,0.8,6,1.5,comp,up,0.635025313975,1
angle,6,65,8,90,0.0,6,0.5,equ,n,0.658542456149,1
angle,6,66,8,90,0.4,6,0.5,comp,down,0.823177782724,1
angle,6,67,8,90,0.0,6,0.0,equ,n,0.89376677106,1
angle,6,68,8,270,0.6,6,-0.5,equ,n,0.682089111175,1
angle,6,69,8,180,0.2,6,0.5,equ,n,0.693835225542,1
angle,6,70,8,270,0.0,6,0.5,equ,n,0.717384946834,1
angle,6,71,8,0,0.0,6,-1.5,equ,m,1.02316873723,1
angle,6,72,8,180,0.2,6,-0.5,comp,left,0.740884841241,1
angle,6,73,8,270,0.6,6,0.0,comp,up,2.03448940661,1
angle,6,74,8,180,0.4,6,-2.0,equ,n,0.611520053601,1
angle,6,75,8,180,0.2,6,1.5,equ,n,0.929039992978,1
angle,6,76,8,0,0.8,6,-1.0,equ,n,0.752638238002,1
angle,6,77,8,270,0.8,6,-0.5,comp,down,1.99921311842,1
angle,6,78,8,90,0.0,6,1.0,comp,down,1.03490335308,1
angle,6,79,8,0,0.8,6,-1.5,comp,left,0.764429579845,1
angle,6,80,8,180,0.0,6,0.0,comp,left,0.717335119949,1
angle,6,81,8,0,0.2,6,-1.5,equ,n,1.32889005237,1
angle,6,82,8,90,0.8,6,-0.5,comp,up,0.776182593319,1
angle,6,83,8,0,0.0,6,2.0,comp,left,0.682075696244,1
angle,6,84,8,270,0.4,6,2.0,equ,n,0.658537856747,1
angle,6,85,8,0,0.8,6,2.0,comp,left,0.81141825343,1
angle,6,86,8,90,0.6,6,0.5,equ,n,0.682054232355,1
angle,6,87,8,90,0.6,6,-1.5,equ,n,0.64679557522,1
angle,6,88,8,180,0.4,6,1.0,equ,n,0.834972957415,1
angle,6,89,8,180,0.0,6,1.0,comp,left,0.940783041075,1
angle,6,90,8,270,0.0,6,-2.0,equ,n,0.729147542403,1
angle,6,91,8,0,0.8,6,1.5,equ,n,2.4931225477,1
angle,6,92,8,270,0.8,6,-2.0,equ,n,0.870240430078,1
angle,6,93,8,90,0.8,6,2.0,comp,down,2.06976186196,1
angle,6,94,8,180,0.0,6,-1.0,comp,right,0.940779974801,1
angle,6,95,8,90,0.6,6,0.5,comp,down,1.08192115623,1
angle,6,96,8,270,0.6,6,-1.0,equ,n,0.776198691241,1
angle,6,97,8,270,0.0,6,-0.5,equ,n,0.764401216849,1
angle,6,98,8,270,0.0,6,0.0,equ,n,1.03486464142,1
angle,6,99,8,0,0.2,6,1.5,equ,n,0.682083745203,1
angle,6,100,8,0,0.4,6,1.0,equ,n,0.611554165855,1
angle,6,101,8,0,0.2,6,1.0,comp,left,3.19874834853,1
angle,6,102,8,180,0.6,6,-1.0,comp,left,2.16390823727,1
angle,6,103,8,90,0.2,6,-0.5,comp,up,0.646830070757,1
angle,6,104,8,90,0.8,6,0.5,equ,m,0.858475534806,1
angle,6,105,8,270,0.4,6,-1.5,comp,down,0.776143115094,1
angle,6,106,8,90,0.4,6,-2.0,equ,n,0.564478870139,1
angle,6,107,8,270,0.6,6,-0.5,comp,down,0.823218794088,1
angle,6,108,8,0,0.4,6,-2.0,equ,n,0.611513537777,1
angle,6,109,8,180,0.2,6,1.0,equ,m,0.952560584705,1
angle,6,110,8,180,0.2,6,-0.5,equ,n,0.834962608755,1
angle,6,111,8,270,0.6,6,1.5,equ,n,0.740882158258,1
angle,6,112,8,180,0.4,6,2.0,equ,n,0.658569286014,1
angle,6,113,8,270,0.0,6,1.0,comp,up,1.32892684761,1
angle,6,114,8,90,0.4,6,1.5,equ,n,0.646790592531,1
angle,6,115,8,270,0.2,6,1.5,equ,n,0.682096393568,1
angle,6,116,8,180,0.0,6,-0.5,comp,left,0.811437034336,1
angle,6,117,8,180,0.4,6,1.0,comp,left,0.635042178463,1
angle,6,118,8,270,0.6,6,0.5,comp,up,0.8937138779,1
angle,6,119,8,90,0.0,6,1.5,comp,down,0.729130677919,1
angle,6,120,8,0,0.2,6,1.5,comp,right,0.987737602398,1
angle,6,121,8,0,0.8,6,1.5,comp,right,0.952587414569,1
angle,6,122,8,180,0.8,6,-1.5,equ,n,0.552698643522,1
angle,6,123,8,90,0.8,6,-1.0,comp,up,0.940833251247,1
angle,6,124,8,270,0.6,6,1.0,equ,m,1.023129259,1
angle,6,125,8,0,0.2,6,-2.0,comp,left,0.693866271526,1
angle,6,126,8,270,0.2,6,-1.5,comp,down,0.952579748893,1
angle,6,127,8,270,0.4,6,0.5,equ,m,1.02309208048,1
angle,6,128,8,0,0.6,6,0.0,equ,n,0.693826410017,1
angle,6,129,8,0,0.4,6,0.0,equ,n,0.599756691467,1
angle,6,130,8,180,0.0,6,0.0,equ,m,0.787902644388,1
