session,trial,size,orLarge,phase,dur,orSmall,task,response,rt,subject
1,1,8,180,0.0,6,-1.5,comp,right,0.776166695989,1
1,2,8,180,0.8,6,-1.5,comp,right,0.705590964859,1
1,3,8,180,0.0,6,2.0,comp,left,0.717343301854,1
1,4,8,180,0.6,6,0.5,comp,left,0.846752009285,1
1,5,8,180,0.6,6,1.0,comp,left,0.799703949349,1
1,6,8,180,0.0,6,-2.0,comp,right,0.705648457868,1
1,7,8,180,0.0,6,0.0,comp,left,0.658580467021,1
1,8,8,180,0.4,6,1.5,comp,left,0.729140866679,1
1,9,8,180,0.0,6,0.5,comp,left,0.705582532551,1
1,10,8,180,0.2,6,-1.0,comp,right,0.740911601439,1
1,11,8,180,0.6,6,-0.5,comp,left,0.84673744439,1
1,12,8,180,0.0,6,1.5,comp,left,0.693853576046,1
1,13,8,180,0.8,6,0.0,comp,right,0.987838312805,1
1,14,8,180,0.6,6,-1.5,comp,right,0.764387912212,1
1,15,8,180,0.2,6,-1.5,comp,right,0.729122852204,1
1,16,8,180,0.6,6,1.5,comp,left,0.670326288138,1
1,17,8,180,0.8,6,1.5,comp,left,0.693846676888,1
1,18,8,180,0.2,6,1.0,comp,left,0.635030948484,1
1,19,8,180,0.6,6,-1.0,comp,right,0.623284744077,1
1,20,8,180,0.8,6,0.5,comp,left,0.752674670461,1
1,21,8,180,0.0,6,-0.5,comp,right,0.811440954873,1
1,22,8,180,0.0,6,1.0,comp,left,0.67030980681,1
1,23,8,180,0.4,6,-2.0,comp,right,0.670256913243,1
1,24,8,180,0.0,6,-1.0,comp,right,0.740879022069,1
1,25,8,180,0.6,6,-2.0,comp,right,0.670335103736,1
1,26,8,180,0.2,6,0.5,comp,left,0.752649373535,1
1,27,8,180,0.2,6,2.0,comp,left,0.658581233594,1
1,28,8,180,0.8,6,-0.5,comp,right,0.611538156383,1
1,29,8,180,0.8,6,-1.0,comp,right,0.670332420726,1
1,30,8,180,0.8,6,-2.0,comp,right,0.611540456102,1
1,31,8,180,0.4,6,-0.5,comp,left,0.705645774859,1
1,32,8,180,0.2,6,1.5,comp,left,0.635051645968,1
1,33,8,180,0.4,6,2.0,comp,left,0.74089473682,1
1,34,8,180,0.4,6,0.5,comp,left,0.83495789404,1
1,35,8,180,0.8,6,1.0,comp,left,0.776173978436,1
1,36,8,180,0.2,6,-0.5,comp,right,0.658570118278,1
1,37,8,180,0.4,6,1.0,comp,left,0.611549654986,1
1,38,8,180,0.6,6,2.0,comp,left,0.635025199183,1
1,39,8,180,0.2,6,0.0,comp,right,0.552729710431,1
1,40,8,180,0.8,6,2.0,comp,left,0.635045130093,1
1,41,8,180,0.6,6,0.0,comp,left,0.764429307175,1
1,42,8,180,0.4,6,-1.0,comp,right,0.599785052818,1
1,43,8,180,0.4,6,0.0,comp,left,0.611512859461,1
1,44,8,180,0.2,6,-2.0,comp,right,0.62326596303,1
1,45,8,180,0.4,6,-1.5,comp,right,0.611499827712,1
1,46,8,180,0.6,6,0.0,comp,left,0.71737856423,1
1,47,8,180,0.2,6,1.5,comp,left,0.670344302613,1
1,48,8,180,0.4,6,0.5,comp,right,0.658567435272,1
1,49,8,180,0.2,6,-2.0,comp,right,0.588007418897,1
1,50,8,180,0.4,6,2.0,comp,left,0.646586659401,1
1,51,8,180,0.2,6,-1.5,comp,right,0.611497527992,1
1,52,8,180,0.8,6,-1.5,comp,right,0.529205105533,1
1,53,8,180,0.0,6,-0.5,comp,left,0.670330504294,1
1,54,8,180,0.6,6,2.0,comp,left,0.587959891345,1
1,55,8,180,0.4,6,1.0,comp,right,0.764448471509,1
1,56,8,180,0.4,6,-0.5,comp,right,0.588011635049,1
1,57,8,180,0.2,6,-0.5,comp,right,0.670322071986,1
1,58,8,180,0.8,6,1.5,comp,left,0.764408992982,1
1,59,8,180,0.8,6,2.0,comp,left,0.599732542534,1
1,60,8,180,0.2,6,-1.0,comp,right,0.682094723175,1
1,61,8,180,0.8,6,0.0,comp,left,0.752642474377,1
1,62,8,180,0.8,6,0.5,comp,left,0.729152365282,1
1,63,8,180,0.2,6,0.0,comp,right,0.7645872213,1
1,64,8,180,0.6,6,1.0,comp,left,0.670331654153,1
1,65,8,180,0.6,6,-2.0,comp,right,0.564462883089,1
1,66,8,180,0.4,6,0.0,comp,right,0.670305973945,1
1,67,8,180,0.0,6,0.0,comp,right,0.693848976607,1
1,68,8,180,0.6,6,1.5,comp,left,0.670343919326,1
1,69,8,180,0.2,6,2.0,comp,left,0.705633126396,1
1,70,8,180,0.0,6,-2.0,comp,right,0.529200506091,1
1,71,8,180,0.6,6,-1.0,comp,right,0.599785052818,1
1,72,8,180,0.4,6,1.5,comp,left,0.529236151753,1
1,73,8,180,0.8,6,-1.0,comp,right,0.529197823085,1
1,74,8,180,0.6,6,-0.5,comp,right,0.823213989352,1
1,75,8,180,0.6,6,0.5,comp,left,0.635044363516,1
1,76,8,180,0.2,6,1.0,comp,right,0.529191307211,1
1,77,8,180,0.6,6,-1.5,comp,right,0.599766271764,1
1,78,8,180,0.0,6,-1.0,comp,right,0.705575250104,1
1,79,8,180,0.0,6,1.0,comp,left,0.623290110092,1
1,80,8,180,0.4,6,-2.0,comp,right,0.54104904805,1
1,81,8,180,0.0,6,0.5,comp,left,0.564376643582,1
1,82,8,180,0.0,6,-1.5,comp,right,0.564492396166,1
1,83,8,180,0.0,6,2.0,comp,left,0.623283977504,1
1,84,8,180,0.4,6,-1.5,comp,right,0.588034248969,1
1,85,8,180,0.8,6,-0.5,comp,left,0.740849508991,1
1,86,8,180,0.4,6,-1.0,comp,right,0.564514243506,1
1,87,8,180,0.8,6,-2.0,comp,right,0.670331270871,1
1,88,8,180,0.0,6,1.5,comp,left,0.576257381621,1
1,89,8,180,0.2,6,0.5,comp,right,0.635069277156,1
1,90,8,180,0.8,6,1.0,comp,left,0.705370575004,1
1,91,8,180,0.8,6,-1.5,comp,right,0.67055664345,1
1,92,8,180,0.2,6,0.0,comp,left,0.752646690529,1
1,93,8,180,0.6,6,0.5,comp,left,0.940812866782,1
1,94,8,180,0.4,6,1.0,comp,left,0.68207134269,1
1,95,8,180,0.4,6,-2.0,comp,right,0.587992854002,1
1,96,8,180,0.8,6,-2.0,comp,right,0.57627041337,1
1,97,8,180,0.6,6,-1.5,comp,right,0.599765505194,1
1,98,8,180,0.6,6,-0.5,comp,left,0.811446704174,1
1,99,8,180,0.4,6,-0.5,comp,right,0.75265473955,1
1,100,8,180,0.0,6,-1.0,comp,right,0.670328587861,1
1,101,8,180,0.4,6,-1.5,comp,right,0.552732776727,1
1,102,8,180,0.2,6,0.5,comp,left,0.705639258984,1
1,103,8,180,0.6,6,2.0,comp,left,0.693835944858,1
1,104,8,180,0.2,6,1.5,comp,left,0.823191375435,1
1,105,8,180,0.8,6,1.0,comp,right,0.729145082831,1
1,106,8,180,0.0,6,-1.5,comp,right,1.03489787134,1
1,107,8,180,0.4,6,0.5,comp,left,0.670329354434,1
1,108,8,180,0.6,6,0.0,comp,left,1.03490668693,1
1,109,8,180,0.6,6,1.5,comp,left,0.623270179185,1
1,110,8,180,0.8,6,1.5,comp,left,0.623286277223,1
1,111,8,180,0.6,6,1.0,comp,right,0.623288193656,1
1,112,8,180,0.8,6,-1.0,comp,right,0.646781369047,1
1,113,8,180,0.2,6,-1.0,comp,right,0.799676735991,1
1,114,8,180,0.6,6,-2.0,comp,right,0.587983271835,1
1,115,8,180,0.0,6,-0.5,comp,right,0.776201191791,1
1,116,8,180,0.0,6,0.5,comp,right,0.623241049394,1
1,117,8,180,0.4,6,1.5,comp,left,0.740856408152,1
1,118,8,180,0.2,6,-0.5,comp,right,0.65859426534,1
1,119,8,180,0.0,6,1.0,comp,left,0.670307890381,1
1,120,8,180,0.2,6,2.0,comp,left,0.599792718549,1
1,121,8,180,0.0,6,1.5,comp,left,0.646810498838,1
1,122,8,180,0.0,6,0.0,comp,right,0.635037847645,1
1,123,8,180,0.4,6,2.0,comp,left,0.787911750533,1
1,124,8,180,0.8,6,0.5,comp,right,0.576265813932,1
1,125,8,180,0.2,6,1.0,comp,left,0.635043596947,1
1,126,8,180,0.4,6,0.0,comp,left,0.658590432475,1
1,127,8,180,0.2,6,-1.5,comp,right,0.764440805779,1
1,128,8,180,0.8,6,-0.5,comp,right,0.670334720449,1
1,129,8,180,0.4,6,-1.0,comp,right,0.552698280921,1
1,130,8,180,0.8,6,2.0,comp,left,0.670303674222,1
1,131,8,180,0.8,6,0.0,comp,right,0.493950394266,1
1,132,8,180,0.6,6,-1.0,comp,right,0.529187091059,1
1,133,8,180,0.0,6,-2.0,comp,right,0.529192073784,1
1,134,8,180,0.0,6,2.0,comp,left,0.658575867579,1
1,135,8,180,0.2,6,-2.0,comp,right,0.458716763773,1
1,136,8,180,0.8,6,-1.0,comp,left,0.740908918429,1
1,137,8,180,0.8,6,-2.0,comp,right,0.588004735888,1
1,138,8,180,0.0,6,-1.5,comp,right,0.635044746807,1
1,139,8,180,0.4,6,-0.5,comp,right,0.635049729535,1
1,140,8,180,0.6,6,2.0,comp,left,0.623016443384,1
1,141,8,180,0.0,6,-2.0,comp,right,0.776191609624,1
1,142,8,180,0.0,6,-0.5,comp,right,0.811390744315,1
1,143,8,180,0.2,6,2.0,comp,left,0.611524358064,1
1,144,8,180,0.6,6,1.5,comp,right,0.717369365353,1
1,145,8,180,0.0,6,2.0,comp,left,0.670338553315,1
1,146,8,180,0.8,6,0.0,comp,right,0.552751941061,1
1,147,8,180,0.4,6,2.0,comp,left,0.635026349046,1
1,148,8,180,0.0,6,0.5,comp,right,0.576224802251,1
1,149,8,180,0.8,6,2.0,comp,left,0.599765505194,1
1,150,8,180,0.0,6,1.0,comp,left,0.658548654221,1
1,151,8,180,0.2,6,0.5,comp,left,1.10547283589,1
1,152,8,180,0.4,6,0.0,comp,left,0.623279378065,1
1,153,8,180,0.8,6,0.5,comp,left,0.835093960817,1
1,154,8,180,0.6,6,0.5,comp,left,0.717373964791,1
1,155,8,180,0.4,6,-1.0,comp,right,0.552718211828,1
1,156,8,180,0.0,6,0.0,comp,right,0.623316556874,1
1,157,8,180,0.8,6,1.0,comp,right,0.740908918429,1
1,158,8,180,0.6,6,1.0,comp,right,0.846727862223,1
1,159,8,180,0.8,6,-0.5,comp,right,0.564515010079,1
1,160,8,180,0.2,6,1.5,comp,left,0.68212346968,1
1,161,8,180,0.4,6,1.5,comp,left,0.61155962044,1
1,162,8,180,0.4,6,1.0,comp,right,0.57624051701,1
1,163,8,180,0.2,6,-1.5,comp,right,0.635052795828,1
1,164,8,180,0.6,6,-0.5,comp,right,0.588027733091,1
1,165,8,180,0.8,6,-1.5,comp,right,0.59955316436,1
1,166,8,180,0.2,6,1.0,comp,left,0.870261282715,1
1,167,8,180,0.0,6,1.5,comp,left,0.646810882121,1
1,168,8,180,0.2,6,-2.0,comp,right,0.646844611354,1
1,169,8,180,0.4,6,-1.5,comp,right,0.635077709463,1
1,170,8,180,0.6,6,-1.0,comp,right,0.670347368909,1
1,171,8,180,0.6,6,-2.0,comp,right,0.658566668695,1
1,172,8,180,0.2,6,0.0,comp,right,0.62328551065,1
1,173,8,180,0.0,6,-1.0,comp,right,0.61151630904,1
1,174,8,180,0.6,6,-1.5,comp,right,0.611524741347,1
1,175,8,180,0.4,6,0.5,comp,right,0.635069660442,1
1,176,8,180,0.4,6,-2.0,comp,right,0.658584299887,1
1,177,8,180,0.8,6,1.5,comp,left,0.682072875836,1
1,178,8,180,0.2,6,-1.0,comp,right,0.658488094923,1
1,179,8,180,0.2,6,-0.5,comp,left,0.67032322185,1
1,180,8,180,0.6,6,0.0,comp,right,0.599779303513,1
1,181,8,180,0.4,6,0.0,comp,right,0.940794085731,1
1,182,8,180,0.8,6,1.0,comp,left,0.623256380859,1
1,183,8,180,0.0,6,1.0,comp,left,0.611524358061,1
1,184,8,180,0.4,6,2.0,comp,left,0.670303674226,1
1,185,8,180,0.4,6,-1.5,comp,right,0.693819846816,1
1,186,8,180,0.6,6,1.5,comp,left,0.611531257226,1
1,187,8,180,0.6,6,-0.5,comp,right,0.517466566856,1
1,188,8,180,0.4,6,-1.0,comp,right,0.576221735959,1
1,189,8,180,0.2,6,-1.0,comp,right,0.693841310873,1
1,190,8,180,0.8,6,-0.5,comp,right,0.56447016554,1
1,191,8,180,0.6,6,1.0,comp,left,0.740860241018,1
1,192,8,180,0.2,6,-2.0,comp,right,0.61152704107,1
1,193,8,180,0.4,6,0.5,comp,right,0.693840927586,1
1,194,8,180,0.2,6,1.5,comp,left,0.670325521565,1
1,195,8,180,0.2,6,-0.5,comp,right,0.976074860493,1
1,196,8,180,0.2,6,-1.5,comp,right,0.552705563368,1
1,197,8,180,0.8,6,1.5,comp,right,0.729094105704,1
1,198,8,180,0.8,6,-1.0,comp,right,0.588011251766,1
1,199,8,180,0.0,6,1.5,comp,right,0.69383939444,1
1,200,8,180,0.2,6,0.5,comp,right,0.564459050223,1
1,201,8,180,0.8,6,0.0,comp,right,0.49393582937,1
1,202,8,180,0.8,6,-2.0,comp,right,0.493941961962,1
1,203,8,180,0.4,6,1.0,comp,right,0.587993237288,1
1,204,8,180,0.2,6,1.0,comp,left,0.8114286897,1
1,205,8,180,0.8,6,0.5,comp,right,0.717390829403,1
1,206,8,180,0.6,6,-1.5,comp,right,0.552709012951,1
1,207,8,180,0.4,6,1.5,comp,left,0.576244349875,1
1,208,8,180,0.8,6,-1.5,comp,right,0.599942200366,1
1,209,8,180,0.0,6,-0.5,comp,right,0.67031095667,1
1,210,8,180,0.4,6,-2.0,comp,right,0.517448935672,1
1,211,8,180,0.0,6,-1.0,comp,right,0.505650220985,1
1,212,8,180,0.8,6,2.0,comp,right,0.505686633223,1
1,213,8,180,0.0,6,-2.0,comp,right,0.552689465327,1
1,214,8,180,0.0,6,0.5,comp,left,0.576246266308,1
1,215,8,180,0.4,6,-0.5,comp,right,0.752661638711,1
1,216,8,180,0.6,6,0.0,comp,left,0.729137800387,1
1,217,8,180,0.6,6,-2.0,comp,right,0.6233272889,1
1,218,8,180,0.2,6,2.0,comp,left,0.693858558774,1
1,219,8,180,0.0,6,-1.5,comp,right,0.529188240918,1
1,220,8,180,0.6,6,2.0,comp,left,0.6350248159,1
1,221,8,180,0.0,6,2.0,comp,left,0.882014386283,1
1,222,8,180,0.6,6,0.5,comp,right,0.799707398932,1
1,223,8,180,0.6,6,-1.0,comp,right,0.529172909446,1
1,224,8,180,0.2,6,0.0,comp,right,0.599767421627,1
1,225,8,180,0.0,6,0.0,comp,right,0.846757758591,1
1,226,8,180,0.4,6,1.0,comp,right,0.693838244581,1
1,227,8,180,0.2,6,-0.5,comp,right,0.646795167369,1
1,228,8,180,0.6,6,0.0,comp,right,0.587978672396,1
1,229,8,180,0.2,6,1.0,comp,left,0.59975707288,1
1,230,8,180,0.6,6,-0.5,comp,right,0.752689235349,1
1,231,8,180,0.0,6,1.0,comp,left,0.658588516038,1
1,232,8,180,0.2,6,-2.0,comp,right,0.588030416096,1
1,233,8,180,0.6,6,1.0,comp,left,0.541000370635,1
1,234,8,180,0.0,6,2.0,comp,left,0.729114419897,1
1,235,8,180,0.0,6,0.0,comp,left,0.846713297324,1
1,236,8,180,0.0,6,0.5,comp,left,1.56410297687,1
1,237,8,180,0.8,6,0.0,comp,left,0.9172675644,1
1,238,8,180,0.0,6,-1.0,comp,right,0.787912133819,1
1,239,8,180,0.8,6,0.5,comp,right,0.999581450917,1
1,240,8,180,0.8,6,2.0,comp,left,0.682109671361,1
1,241,8,180,0.2,6,0.5,comp,right,0.705630443386,1
1,242,8,180,0.6,6,0.5,comp,left,0.78791060068,1
1,243,8,180,0.2,6,0.0,comp,left,0.693826362687,1
1,244,8,180,0.4,6,0.5,comp,right,0.752652056544,1
1,245,8,180,0.4,6,1.5,comp,left,0.752657039273,1
1,246,8,180,0.4,6,-2.0,comp,right,0.682085524299,1
1,247,8,180,0.2,6,-1.0,comp,right,1.27011134096,1
1,248,8,180,0.4,6,-1.0,comp,right,0.599729476242,1
1,249,8,180,0.8,6,1.5,comp,left,0.646798616952,1
1,250,8,180,0.8,6,-1.5,comp,right,0.658586599609,1
1,251,8,180,0.8,6,1.0,comp,right,0.929083526986,1
1,252,8,180,0.8,6,-0.5,comp,right,0.729102921301,1
1,253,8,180,0.8,6,-2.0,comp,right,0.635057395273,1
1,254,8,180,0.6,6,-2.0,comp,right,0.670320922123,1
1,255,8,180,0.0,6,-0.5,comp,right,0.882020135585,1
1,256,8,180,0.6,6,1.5,comp,left,0.729151598709,1
1,257,8,180,0.2,6,-1.5,comp,right,0.705636959268,1
1,258,8,180,0.6,6,2.0,comp,left,0.623292409815,1
1,259,8,180,0.2,6,1.5,comp,left,0.658557853109,1
1,260,8,180,0.0,6,-2.0,comp,right,0.682103155479,1
1,261,8,180,0.6,6,-1.0,comp,right,0.670349285341,1
1,262,8,180,0.6,6,-1.5,comp,right,0.658575484289,1
1,263,8,180,0.4,6,0.0,comp,left,0.752665854867,1
1,264,8,180,0.4,6,2.0,comp,left,0.74090930172,1
1,265,8,180,0.2,6,2.0,comp,left,0.740903935701,1
1,266,8,180,0.4,6,-0.5,comp,right,0.987875874896,1
1,267,8,180,0.0,6,1.5,comp,left,0.729139716816,1
1,268,8,180,0.8,6,-1.0,comp,right,0.905571187264,1
1,269,8,180,0.0,6,-1.5,comp,right,0.717374731365,1
1,270,8,180,0.4,6,-1.5,comp,right,0.623311190859,1
2,1,8,0,0.4,6,-0.5,comp,left,1.11722287317,1
2,2,8,0,0.0,6,0.0,comp,right,0.682111971073,1
2,3,8,0,0.2,6,2.0,comp,right,0.635076176317,1
2,4,8,0,0.4,6,0.0,comp,left,0.670305590655,1
2,5,8,0,0.6,6,1.5,comp,right,0.670328204578,1
2,6,8,0,0.8,6,-2.0,comp,left,0.623282827641,1
2,7,8,0,0.2,6,0.5,comp,right,0.705606296331,1
2,8,8,0,0.0,6,-0.5,comp,left,0.72910790403,1
2,9,8,0,0.4,6,0.5,comp,right,0.552749641334,1
2,10,8,0,0.2,6,0.0,comp,right,0.846713680614,1
2,11,8,0,0.6,6,1.0,comp,right,0.646796317233,1
2,12,8,0,0.4,6,1.5,comp,right,0.623283594214,1
2,13,8,0,0.0,6,1.5,comp,right,0.493903633294,1
2,14,8,0,0.4,6,-1.0,comp,left,0.705600930312,1
2,15,8,0,0.6,6,-2.0,comp,left,0.670372665831,1
2,16,8,0,0.0,6,-2.0,comp,left,0.599756306314,1
2,17,8,0,0.8,6,1.0,comp,right,0.529284445882,1
2,18,8,0,0.0,6,-1.0,comp,left,0.693856642334,1
2,19,8,0,0.0,6,2.0,comp,right,0.529172142873,1
2,20,8,0,0.4,6,1.0,comp,right,0.529232318891,1
2,21,8,0,0.8,6,2.0,comp,right,0.50565443714,1
2,22,8,0,0.4,6,-2.0,comp,left,0.670309423527,1
2,23,8,0,0.2,6,-0.5,comp,right,0.588005119178,1
2,24,8,0,0.0,6,1.0,comp,right,0.588002436176,1
2,25,8,0,0.8,6,0.5,comp,right,0.599752856731,1
2,26,8,0,0.8,6,0.0,comp,right,0.658558619674,1
2,27,8,0,0.8,6,-1.0,comp,right,0.834949078446,1
2,28,8,0,0.2,6,-1.5,comp,left,0.705629676821,1
2,29,8,0,0.8,6,-1.5,comp,right,0.564491629593,1
2,30,8,0,0.0,6,0.5,comp,right,0.576215986664,1
2,31,8,0,0.0,6,-1.5,comp,left,0.658571651431,1
2,32,8,0,0.6,6,0.5,comp,right,0.552727410708,1
2,33,8,0,0.6,6,-0.5,comp,right,0.740882854931,1
2,34,8,0,0.4,6,2.0,comp,right,0.564463266383,1
2,35,8,0,0.2,6,-2.0,comp,left,0.599738675126,1
2,36,8,0,0.8,6,-0.5,comp,left,0.693848976603,1
2,37,8,0,0.6,6,2.0,comp,right,0.588004352605,1
2,38,8,0,0.6,6,0.0,comp,right,0.964353953008,1
2,39,8,0,0.2,6,1.5,comp,right,0.540987722183,1
2,40,8,0,0.2,6,1.0,comp,right,0.9408527286,1
2,41,8,0,0.2,6,-1.0,comp,left,0.693875423385,1
2,42,8,0,0.6,6,-1.5,comp,left,0.846758141874,1
2,43,8,0,0.6,6,-1.0,comp,left,0.693847060174,1
2,44,8,0,0.8,6,1.5,comp,right,0.611542755818,1
2,45,8,0,0.4,6,-1.5,comp,left,0.61150519373,1
2,46,8,0,0.0,6,0.5,comp,right,0.635024432609,1
2,47,8,0,0.6,6,2.0,comp,right,0.55272281127,1
2,48,8,0,0.6,6,-1.0,comp,left,0.670338553318,1
2,49,8,0,0.4,6,0.5,comp,right,0.740902402555,1
2,50,8,0,0.2,6,1.0,comp,right,0.576186473583,1
2,51,8,0,0.6,6,1.5,comp,right,0.658764061351,1
2,52,8,0,0.8,6,-0.5,comp,right,0.470417740347,1
2,53,8,0,0.4,6,-1.0,comp,right,0.870273931178,1
2,54,8,0,0.8,6,2.0,comp,right,0.517490330632,1
2,55,8,0,0.8,6,1.5,comp,right,0.611518608755,1
2,56,8,0,0.2,6,-1.0,comp,left,0.552694448052,1
2,57,8,0,0.2,6,2.0,comp,right,0.623338020931,1
2,58,8,0,0.8,6,-2.0,comp,left,0.658575484289,1
2,59,8,0,0.8,6,0.0,comp,right,0.823240819424,1
2,60,8,0,0.2,6,-2.0,comp,left,0.705599397166,1
2,61,8,0,0.2,6,-0.5,comp,right,0.599767804917,1
2,62,8,0,0.0,6,-2.0,comp,left,0.540935978475,1
2,63,8,0,0.0,6,2.0,comp,right,0.505658270005,1
2,64,8,0,0.2,6,0.5,comp,left,0.693817930376,1
2,65,8,0,0.2,6,1.5,comp,right,0.517474232591,1
2,66,8,0,0.0,6,-1.5,comp,left,0.552712079239,1
2,67,8,0,0.4,6,2.0,comp,right,0.423388461459,1
2,68,8,0,0.8,6,1.0,comp,left,0.517424022037,1
2,69,8,0,0.6,6,-0.5,comp,right,0.65857356786,1
2,70,8,0,0.0,6,1.0,comp,right,0.599775470648,1
2,71,8,0,0.4,6,-2.0,comp,left,0.552746191759,1
2,72,8,0,0.4,6,-0.5,comp,left,0.729133200941,1
2,73,8,0,0.6,6,-2.0,comp,left,0.576252015606,1
2,74,8,0,0.8,6,-1.0,comp,left,0.505684716787,1
2,75,8,0,0.2,6,-1.5,comp,left,0.493909765879,1
2,76,8,0,0.4,6,1.5,comp,right,0.623302758555,1
2,77,8,0,0.8,6,-1.5,comp,left,0.764408226409,1
2,78,8,0,0.0,6,0.0,comp,right,0.540978906582,1
2,79,8,0,0.4,6,0.0,comp,left,0.96433670511,1
2,80,8,0,0.6,6,-1.5,comp,left,0.599748257293,1
2,81,8,0,0.0,6,1.5,comp,right,0.599793101836,1
2,82,8,0,0.6,6,0.0,comp,left,0.635027882192,1
2,83,8,0,0.8,6,0.5,comp,left,0.893777455305,1
2,84,8,0,0.2,6,0.0,comp,left,0.693805281924,1
2,85,8,0,0.4,6,1.0,comp,right,0.764412059274,1
2,86,8,0,0.0,6,-1.0,comp,left,0.693852809469,1
2,87,8,0,0.0,6,-0.5,comp,left,0.76441397571,1
2,88,8,0,0.6,6,0.5,comp,right,0.705584832271,1
2,89,8,0,0.6,6,1.0,comp,right,0.599827214355,1
2,90,8,0,0.4,6,-1.5,comp,left,0.646810882121,1
2,91,8,0,0.4,6,1.5,comp,right,0.693855875768,1
2,92,8,0,0.6,6,0.0,comp,left,0.6703101901,1
2,93,8,0,0.8,6,1.5,comp,right,0.493943878391,1
2,94,8,0,0.2,6,-0.5,comp,left,0.599746340857,1
2,95,8,0,0.4,6,0.5,comp,right,0.588211327427,1
2,96,8,0,0.8,6,-1.5,comp,left,0.49392509734,1
2,97,8,0,0.8,6,0.0,comp,right,0.42338386202,1
2,98,8,0,0.2,6,0.5,comp,right,0.787936664172,1
2,99,8,0,0.0,6,0.0,comp,left,0.587973306378,1
2,100,8,0,0.6,6,-2.0,comp,left,0.493932379788,1
2,101,8,0,0.2,6,1.5,comp,left,0.517471932879,1
2,102,8,0,0.2,6,-1.5,comp,left,0.529231935601,1
2,103,8,0,0.0,6,-1.0,comp,left,0.564476681408,1
2,104,8,0,0.8,6,0.5,comp,right,0.740929615917,1
2,105,8,0,0.2,6,-2.0,comp,left,0.799688617881,1
2,106,8,0,0.4,6,-0.5,comp,left,0.846717130196,1
2,107,8,0,0.0,6,1.5,comp,right,0.576258531481,1
2,108,8,0,0.2,6,-1.0,comp,left,0.587979055679,1
2,109,8,0,0.0,6,-0.5,comp,left,0.5997681882,1
2,110,8,0,0.4,6,-2.0,comp,left,0.623260597014,1
2,111,8,0,0.0,6,-1.5,comp,left,0.505737993633,1
2,112,8,0,0.4,6,1.0,comp,right,0.576263514209,1
2,113,8,0,0.0,6,1.0,comp,right,0.717354033884,1
2,114,8,0,0.4,6,-1.5,comp,left,0.646783285483,1
2,115,8,0,0.8,6,-0.5,comp,right,0.752627526199,1
2,116,8,0,0.8,6,-2.0,comp,left,0.588036931971,1
2,117,8,0,0.8,6,1.0,comp,right,0.646816631423,1
2,118,8,0,0.8,6,2.0,comp,right,0.623264813163,1
2,119,8,0,0.6,6,-1.0,comp,left,0.62326442988,1
2,120,8,0,0.6,6,2.0,comp,right,0.552753857497,1
2,121,8,0,0.4,6,0.0,comp,left,0.540978523299,1
2,122,8,0,0.6,6,1.5,comp,right,0.717371665065,1
2,123,8,0,0.4,6,2.0,comp,right,0.599811116314,1
2,124,8,0,0.6,6,0.5,comp,left,0.717359399896,1
2,125,8,0,0.8,6,-1.0,comp,right,0.658564752259,1
2,126,8,0,0.0,6,2.0,comp,right,0.58812585449,1
2,127,8,0,0.6,6,-1.5,comp,left,0.588024666795,1
2,128,8,0,0.6,6,1.0,comp,right,0.599768571483,1
2,129,8,0,0.2,6,2.0,comp,right,0.635051645972,1
2,130,8,0,0.4,6,-1.0,comp,left,0.658590432475,1
2,131,8,0,0.2,6,1.0,comp,right,0.787962727671,1
2,132,8,0,0.0,6,-2.0,comp,left,0.540940961197,1
2,133,8,0,0.2,6,0.0,comp,left,0.811484266269,1
2,134,8,0,0.0,6,0.5,comp,right,0.752671220878,1
2,135,8,0,0.6,6,-0.5,comp,left,0.599827597638,1
2,136,8,0,0.6,6,-2.0,comp,left,0.693842460729,1
2,137,8,0,0.4,6,1.5,comp,left,0.693853576042,1
2,138,8,0,0.6,6,-0.5,comp,left,0.646771020307,1
2,139,8,0,0.4,6,-1.0,comp,left,0.658572801287,1
2,140,8,0,0.4,6,1.0,comp,right,0.846733994811,1
2,141,8,0,0.8,6,-1.5,comp,left,0.635039764078,1
2,142,8,0,0.2,6,0.5,comp,right,0.635051645964,1
2,143,8,0,0.8,6,-0.5,comp,left,0.635048196382,1
2,144,8,0,0.8,6,0.5,comp,left,0.623270562472,1
2,145,8,0,0.8,6,2.0,comp,right,0.611512092888,1
2,146,8,0,0.2,6,-1.0,comp,left,0.71738967955,1
2,147,8,0,0.0,6,-1.5,comp,left,0.752627526192,1
2,148,8,0,0.4,6,-1.5,comp,left,0.62323300037,1
2,149,8,0,0.0,6,0.0,comp,left,0.705633509686,1
2,150,8,0,0.2,6,1.0,comp,left,0.764409759548,1
2,151,8,0,0.2,6,-2.0,comp,left,0.576224035678,1
2,152,8,0,0.6,6,0.5,comp,right,0.776168612421,1
2,153,8,0,0.0,6,1.5,comp,right,0.646830813035,1
2,154,8,0,0.4,6,2.0,comp,right,0.646804749536,1
2,155,8,0,0.2,6,1.5,comp,right,0.635033248211,1
2,156,8,0,0.2,6,-0.5,comp,left,0.787935897592,1
2,157,8,0,0.6,6,1.5,comp,right,0.729094105707,1
2,158,8,0,0.8,6,0.0,comp,left,0.987836779655,1
2,159,8,0,0.4,6,0.5,comp,left,0.658543288206,1
2,160,8,0,0.8,6,1.5,comp,right,0.670359250798,1
2,161,8,0,0.0,6,-1.0,comp,left,0.635074259888,1
2,162,8,0,0.0,6,-2.0,comp,left,0.670302141072,1
2,163,8,0,0.6,6,1.0,comp,right,0.964332872238,1
2,164,8,0,0.8,6,-2.0,comp,left,0.576187623439,1
2,165,8,0,0.0,6,1.0,comp,right,0.658535239192,1
2,166,8,0,0.2,6,0.0,comp,left,0.729114036607,1
2,167,8,0,0.4,6,0.0,comp,right,0.835019986487,1
2,168,8,0,0.6,6,2.0,comp,right,0.670346602339,1
2,169,8,0,0.6,6,0.0,comp,left,0.658590049192,1
2,170,8,0,0.2,6,2.0,comp,right,0.682095106466,1
2,171,8,0,0.4,6,-0.5,comp,left,0.623287427086,1
2,172,8,0,0.0,6,2.0,comp,right,0.646806282683,1
2,173,8,0,0.8,6,-1.0,comp,left,0.682115803946,1
2,174,8,0,0.6,6,-1.0,comp,left,0.717344835,1
2,175,8,0,0.8,6,1.0,comp,left,0.917287495307,1
2,176,8,0,0.0,6,0.5,comp,left,0.729112120178,1
2,177,8,0,0.2,6,-1.5,comp,left,0.635074259881,1
2,178,8,0,0.0,6,-0.5,comp,left,0.635050112818,1
2,179,8,0,0.6,6,-1.5,comp,left,0.635041680514,1
2,180,8,0,0.4,6,-2.0,comp,left,0.54096280854,1
2,181,8,0,0.2,6,2.0,comp,right,0.7526532064,1
2,182,8,0,0.0,6,2.0,comp,right,0.64681318184,1
2,183,8,0,0.8,6,1.5,comp,right,0.529207021966,1
2,184,8,0,0.0,6,0.5,comp,left,0.752617560735,1
2,185,8,0,0.8,6,2.0,comp,right,0.635045130097,1
2,186,8,0,0.6,6,-1.5,comp,left,0.7408721229,1
2,187,8,0,0.4,6,-0.5,comp,right,0.635029032055,1
2,188,8,0,0.2,6,-0.5,comp,left,0.976107823153,1
2,189,8,0,0.4,6,-2.0,comp,left,0.682213158769,1
2,190,8,0,0.8,6,-0.5,comp,left,1.01137671602,1
2,191,8,0,0.0,6,-2.0,comp,left,0.62329585939,1
2,192,8,0,0.8,6,0.0,comp,right,0.705595564301,1
2,193,8,0,0.4,6,1.5,comp,right,0.658586216319,1
2,194,8,0,0.0,6,-1.5,comp,left,0.646794017506,1
2,195,8,0,0.2,6,-2.0,comp,left,0.799696666894,1
2,196,8,0,0.6,6,0.0,comp,left,0.834959427186,1
2,197,8,0,0.2,6,1.0,comp,right,0.787973842984,1
2,198,8,0,0.8,6,-1.0,comp,left,0.646802833107,1
2,199,8,0,0.0,6,0.0,comp,left,0.729131284512,1
2,200,8,0,0.6,6,-2.0,comp,left,0.564481280853,1
2,201,8,0,0.6,6,0.5,comp,right,0.693848593321,1
2,202,8,0,0.0,6,-0.5,comp,right,0.764390595214,1
2,203,8,0,0.6,6,-0.5,comp,left,0.646814331703,1
2,204,8,0,0.6,6,1.5,comp,right,0.752652056544,1
2,205,8,0,0.2,6,0.5,comp,left,0.705645008282,1
2,206,8,0,0.4,6,0.5,comp,left,0.764445788504,1
2,207,8,0,0.2,6,0.0,comp,left,0.564421871408,1
2,208,8,0,0.6,6,1.0,comp,left,0.623247565265,1
2,209,8,0,0.2,6,-1.5,comp,left,0.599766655047,1
2,210,8,0,0.4,6,-1.5,comp,left,0.670327437998,1
2,211,8,0,0.4,6,-1.0,comp,left,0.588003202742,1
2,212,8,0,0.0,6,1.5,comp,left,0.529184791332,1
2,213,8,0,0.6,6,-1.0,comp,left,0.599767421627,1
2,214,8,0,0.8,6,-2.0,comp,left,0.588012784909,1
2,215,8,0,0.4,6,1.0,comp,right,0.564488180018,1
2,216,8,0,0.0,6,-1.0,comp,left,0.587994003865,1
2,217,8,0,0.0,6,1.0,comp,right,0.84675699201,1
2,218,8,0,0.2,6,-1.0,comp,left,0.658611513245,1
2,219,8,0,0.4,6,0.0,comp,right,0.811407225643,1
2,220,8,0,0.2,6,1.5,comp,right,0.729104454447,1
2,221,8,0,0.6,6,2.0,comp,right,0.635072343444,1
2,222,8,0,0.4,6,2.0,comp,right,0.623295092817,1
2,223,8,0,0.8,6,1.0,comp,right,0.599754006587,1
2,224,8,0,0.8,6,-1.5,comp,left,0.729109820459,1
2,225,8,0,0.8,6,0.5,comp,left,0.94075345734,1
2,226,8,0,0.8,6,-1.0,comp,left,0.646798616952,1
2,227,8,0,0.8,6,-1.5,comp,left,0.682118486948,1
2,228,8,0,0.8,6,-0.5,comp,left,0.799631508162,1
2,229,8,0,0.6,6,0.0,comp,left,0.870269331732,1
2,230,8,0,0.6,6,-0.5,comp,left,0.670332037444,1
2,231,8,0,0.0,6,1.5,comp,right,0.635044746807,1
2,232,8,0,0.8,6,0.5,comp,right,0.764393278223,1
2,233,8,0,0.6,6,2.0,comp,right,0.811470084664,1
2,234,8,0,0.0,6,-2.0,comp,left,0.811477750402,1
2,235,8,0,0.8,6,-2.0,comp,left,0.682064060238,1
2,236,8,0,0.2,6,-1.0,comp,left,0.764417808576,1
2,237,8,0,0.4,6,-2.0,comp,left,0.634944708974,1
2,238,8,0,0.4,6,-1.0,comp,left,0.682115803946,1
2,239,8,0,0.2,6,1.0,comp,right,0.635025582473,1
2,240,8,0,0.4,6,1.0,comp,right,0.752627526199,1
2,241,8,0,0.2,6,0.0,comp,left,1.12897942632,1
2,242,8,0,0.2,6,2.0,comp,right,0.564468632387,1
2,243,8,0,0.8,6,1.5,comp,right,0.729161180876,1
2,244,8,0,0.6,6,-1.0,comp,left,0.717395812135,1
2,245,8,0,0.4,6,0.0,comp,left,0.91728826188,1
2,246,8,0,0.8,6,1.0,comp,right,0.564475148269,1
2,247,8,0,0.4,6,1.5,comp,right,0.611522441628,1
2,248,8,0,0.6,6,1.5,comp,right,0.59974749072,1
2,249,8,0,0.2,6,-2.0,comp,left,0.705610129189,1
2,250,8,0,0.8,6,0.0,comp,left,0.717366682344,1
2,251,8,0,0.6,6,0.5,comp,right,0.670358484225,1
2,252,8,0,0.0,6,2.0,comp,right,0.834995072852,1
2,253,8,0,0.6,6,-2.0,comp,left,0.693821379966,1
2,254,8,0,0.8,6,2.0,comp,right,0.729122852201,1
2,255,8,0,0.0,6,1.0,comp,right,0.740901252691,1
2,256,8,0,0.4,6,-1.5,comp,left,0.670311723239,1
2,257,8,0,0.0,6,-1.0,comp,left,0.705579849549,1
2,258,8,0,0.2,6,1.5,comp,right,0.717414209896,1
2,259,8,0,0.0,6,0.0,comp,left,0.764413975703,1
2,260,8,0,0.0,6,-0.5,comp,left,0.834969392643,1
2,261,8,0,0.6,6,-1.5,comp,left,0.611530873939,1
2,262,8,0,0.2,6,0.5,comp,left,1.04664330917,1
2,263,8,0,0.0,6,0.5,comp,left,0.717369748636,1
2,264,8,0,0.4,6,0.5,comp,left,0.929057463494,1
2,265,8,0,0.0,6,-1.5,comp,left,0.693853959332,1
2,266,8,0,0.6,6,1.0,comp,right,0.764460736682,1
2,267,8,0,0.2,6,-1.5,comp,left,0.717373964791,1
2,268,8,0,0.4,6,-0.5,comp,left,0.63505624541,1
2,269,8,0,0.4,6,2.0,comp,right,0.787904084806,1
2,270,8,0,0.2,6,-0.5,comp,left,0.987863609727,1
3,1,8,180,0.6,6,2.0,comp,left,0.940827048391,1
3,2,8,0,0.6,6,-1.0,comp,right,0.882031250898,1
3,3,8,0,0.8,6,-0.5,comp,right,0.752674287171,1
3,4,8,0,0.6,6,-1.5,comp,left,0.717342151991,1
3,5,8,0,0.2,6,0.0,comp,right,0.846761974739,1
3,6,8,0,0.8,6,0.0,comp,right,0.787924015705,1
3,7,8,0,0.4,6,2.0,comp,right,0.564483963863,1
3,8,8,180,0.2,6,-2.0,comp,right,0.893814634117,1
3,9,8,0,0.0,6,-0.5,comp,right,0.834939879569,1
3,10,8,180,0.8,6,-1.5,comp,right,0.917312792233,1
3,11,8,0,0.8,6,-1.0,comp,right,0.846774239915,1
3,12,8,180,0.4,6,-2.0,comp,left,0.870257833136,1
3,13,8,180,0.8,6,1.0,comp,left,0.799685168298,1
3,14,8,180,0.2,6,2.0,comp,left,0.764394044803,1
3,15,8,0,0.8,6,1.5,comp,right,0.846737827676,1
3,16,8,0,0.2,6,-1.0,comp,left,0.96434628727,1
3,17,8,0,0.0,6,-1.5,comp,left,0.693852042903,1
3,18,8,180,0.6,6,-1.5,comp,right,1.27013548802,1
3,19,8,0,0.2,6,1.0,comp,right,0.705612428916,1
3,20,8,0,0.0,6,1.0,comp,right,0.693852809476,1
3,21,8,180,0.6,6,1.5,comp,left,0.670351968351,1
3,22,8,180,0.8,6,-2.0,comp,right,0.729143166398,1
3,23,8,0,0.8,6,-1.5,comp,left,0.729103687867,1
3,24,8,180,0.8,6,0.5,comp,left,0.776172062004,1
3,25,8,180,0.2,6,1.0,comp,left,0.623269412608,1
3,26,8,180,0.0,6,-0.5,comp,left,0.882025884886,1
3,27,8,180,0.8,6,1.5,comp,left,0.740903169128,1
3,28,8,180,0.6,6,-1.0,comp,right,0.964338238256,1
3,29,8,180,0.2,6,0.0,comp,left,0.72913856696,1
3,30,8,0,0.2,6,2.0,comp,right,0.776155963962,1
3,31,8,0,0.2,6,-2.0,comp,left,0.67035426807,1
3,32,8,0,0.6,6,-2.0,comp,left,0.764409376265,1
3,33,8,0,0.4,6,-1.0,comp,left,0.882018219148,1
3,34,8,0,0.4,6,0.5,comp,right,1.66996523207,1
3,35,8,180,0.4,6,-0.5,comp,right,0.76441397571,1
3,36,8,180,0.0,6,-2.0,comp,right,0.588001669596,1
3,37,8,0,0.4,6,-2.0,comp,left,0.682085141008,1
3,38,8,0,0.2,6,-1.5,comp,right,1.04665749078,1
3,39,8,180,0.8,6,0.0,comp,left,0.811480433404,1
3,40,8,180,0.6,6,0.0,comp,right,1.02315166693,1
3,41,8,180,0.4,6,-1.5,comp,left,0.705617411637,1
3,42,8,180,0.0,6,-1.5,comp,right,0.893806201806,1
3,43,8,180,0.0,6,0.0,comp,right,0.882041982928,1
3,44,8,180,0.4,6,1.5,comp,left,0.717348284583,1
3,45,8,0,0.8,6,0.5,comp,right,0.787937814035,1
3,46,8,0,0.6,6,2.0,comp,right,0.682088590591,1
3,47,8,0,0.0,6,1.5,comp,right,0.646836562337,1
3,48,8,0,0.6,6,0.5,comp,right,0.752683486055,1
3,49,8,0,0.4,6,-1.5,comp,left,0.776208090952,1
3,50,8,180,0.8,6,-0.5,comp,left,1.02312713658,1
3,51,8,180,0.4,6,0.0,comp,right,0.752649756825,1
3,52,8,180,0.4,6,1.0,comp,left,0.717352117448,1
3,53,8,180,0.2,6,0.5,comp,right,0.823210539769,1
3,54,8,180,0.6,6,-0.5,comp,right,0.846742427122,1
3,55,8,0,0.8,6,2.0,comp,right,0.682058310937,1
3,56,8,180,0.6,6,-2.0,comp,right,0.76438216291,1
3,57,8,180,0.0,6,2.0,comp,left,0.646804366253,1
3,58,8,0,0.0,6,0.0,comp,left,0.693839011154,1
3,59,8,0,0.2,6,-0.5,comp,left,0.787933214589,1
3,60,8,0,0.4,6,1.5,comp,right,0.611574568618,1
3,61,8,0,0.6,6,-0.5,comp,left,0.846744343551,1
3,62,8,180,0.0,6,-1.0,comp,right,0.693850126467,1
3,63,8,180,0.6,6,1.0,comp,left,0.741094045909,1
3,64,8,0,0.0,6,-2.0,comp,left,0.611530873939,1
3,65,8,180,0.2,6,-1.5,comp,right,0.740899719553,1
3,66,8,0,0.8,6,-2.0,comp,left,0.929034466295,1
3,67,8,0,0.4,6,-0.5,comp,left,1.03488828917,1
3,68,8,0,0.2,6,0.5,comp,left,0.72914010010600006,1
3,69,8,0,0.0,6,0.5,comp,right,0.564519226238,1
3,70,8,180,0.6,6,0.5,comp,left,0.682079008424,1
3,71,8,180,0.8,6,2.0,comp,left,0.61150749345,1
3,72,8,0,0.2,6,1.5,comp,right,0.599767038344,1
3,73,8,0,0.4,6,1.0,comp,right,0.529244200778,1
3,74,8,180,0.2,6,1.5,comp,left,0.623323839318,1
3,75,8,0,0.6,6,0.0,comp,right,1.04665327464,1
3,76,8,180,0.2,6,-0.5,comp,right,0.658543671496,1
3,77,8,0,0.6,6,1.5,comp,right,0.717344068427,1
3,78,8,0,0.0,6,-1.0,comp,right,0.940823215526,1
3,79,8,180,0.4,6,-1.0,comp,right,0.787935131026,1
3,80,8,180,0.0,6,1.0,comp,left,0.59971606121,1
3,81,8,180,0.4,6,2.0,comp,left,0.588039998263,1
3,82,8,0,0.4,6,0.0,comp,left,1.48179100679,1
3,83,8,180,0.2,6,-1.0,comp,right,1.44650409945,1
3,84,8,180,0.0,6,0.5,comp,left,0.682076708697,1
3,85,8,180,0.4,6,0.5,comp,left,0.740890520668,1
3,86,8,0,0.0,6,2.0,comp,right,0.623311574142,1
3,87,8,180,0.0,6,1.5,comp,left,0.576257381625,1
3,88,8,0,0.6,6,1.0,comp,right,0.717353650594,1
3,89,8,0,0.8,6,1.0,comp,right,0.940814399932,1
3,90,8,180,0.8,6,-1.0,comp,right,0.682098556041,1
3,91,8,180,0.0,6,-0.5,comp,left,0.658569351705,1
3,92,8,180,0.2,6,2.0,comp,left,0.599787735824,1
3,93,8,0,0.6,6,0.0,comp,left,1.02340885231,1
3,94,8,0,0.2,6,-2.0,comp,left,0.599797317984,1
3,95,8,0,0.0,6,0.0,comp,left,0.670356567789,1
3,96,8,180,0.6,6,-0.5,comp,left,0.917020344474,1
3,97,8,0,0.4,6,-1.0,comp,left,0.6703331873,1
3,98,8,180,0.6,6,0.0,comp,left,0.693852809469,1
3,99,8,0,0.6,6,0.5,comp,right,0.623321156309,1
3,100,8,180,0.0,6,0.5,comp,left,0.635048196389,1
3,101,8,180,0.4,6,2.0,comp,left,0.740862540741,1
3,102,8,180,0.2,6,-0.5,comp,right,0.658539455348,1
3,103,8,180,0.8,6,-0.5,comp,right,0.987860160145,1
3,104,8,180,0.0,6,-1.0,comp,right,0.976108589719,1
3,105,8,0,0.0,6,0.5,comp,right,0.740912751295,1
3,106,8,0,0.2,6,-0.5,comp,left,0.740872506198,1
3,107,8,0,0.0,6,-2.0,comp,left,0.752668537869,1
3,108,8,0,0.6,6,2.0,comp,right,0.576274246232,1
3,109,8,0,0.0,6,2.0,comp,right,0.599776620504,1
3,110,8,0,0.0,6,-1.0,comp,left,0.682079774997,1
3,111,8,0,0.0,6,-0.5,comp,left,0.823177577113,1
3,112,8,180,0.2,6,1.0,comp,left,0.693834028425,1
3,113,8,0,0.0,6,1.5,comp,right,0.69382712926,1
3,114,8,0,0.2,6,0.0,comp,right,0.78792056613,1
3,115,8,0,0.6,6,-0.5,comp,left,0.670326671432,1
3,116,8,180,0.0,6,0.0,comp,left,0.670324754996,1
3,117,8,180,0.0,6,1.0,comp,left,0.540970857561,1
3,118,8,180,0.6,6,-1.0,comp,right,0.929035999434,1
3,119,8,0,0.8,6,2.0,comp,right,0.658587749465,1
3,120,8,180,0.2,6,0.0,comp,right,0.611529724076,1
3,121,8,0,0.6,6,-1.0,comp,left,0.599776237221,1
3,122,8,180,0.2,6,-2.0,comp,right,0.576266197211,1
3,123,8,180,0.6,6,0.5,comp,left,0.799666770537,1
3,124,8,0,0.4,6,1.5,comp,right,0.693841694156,1
3,125,8,180,0.4,6,0.5,comp,left,0.752617944025,1
3,126,8,180,0.8,6,-1.0,comp,right,0.729100238292,1
3,127,8,0,0.8,6,-2.0,comp,left,0.587980588825,1
3,128,8,0,0.0,6,1.0,comp,right,0.599769338063,1
3,129,8,0,0.2,6,0.5,comp,right,0.776172445287,1
3,130,8,180,0.4,6,-1.5,comp,right,0.682098172758,1
3,131,8,0,0.8,6,1.0,comp,right,1.08194056526,1
3,132,8,0,0.2,6,-1.5,comp,left,0.599817632181,1
3,133,8,180,0.6,6,1.5,comp,left,0.646829279882,1
3,134,8,0,0.4,6,0.0,comp,left,0.646786351776,1
3,135,8,180,0.2,6,1.5,comp,left,0.870247867679,1
3,136,8,180,0.8,6,1.5,comp,right,0.587999369876,1
3,137,8,180,0.4,6,-1.0,comp,right,0.882027801315,1
3,138,8,0,0.8,6,1.5,comp,right,0.646822380724,1
3,139,8,180,0.8,6,1.0,comp,right,0.823239286277,1
3,140,8,180,0.8,6,-2.0,comp,right,0.74088630452,1
3,141,8,180,0.4,6,-2.0,comp,right,0.68209089031,1
3,142,8,0,0.4,6,0.5,comp,right,0.658568968422,1
3,143,8,180,0.4,6,0.0,comp,right,1.28185524564,1
3,144,8,180,0.4,6,1.5,comp,left,1.0113947305,1
3,145,8,0,0.8,6,-0.5,comp,left,0.999621696021,1
3,146,8,0,0.2,6,1.0,comp,right,0.588004352605,1
3,147,8,0,0.8,6,-1.5,comp,left,0.776177811298,1
3,148,8,180,0.4,6,-0.5,comp,left,0.752682719482,1
3,149,8,0,0.2,6,1.5,comp,right,0.729128984793,1
3,150,8,0,0.4,6,1.0,comp,right,0.705619711363,1
3,151,8,0,0.4,6,-2.0,comp,left,0.682106988352,1
3,152,8,180,0.4,6,1.0,comp,left,0.635058161846,1
3,153,8,180,0.2,6,-1.5,comp,right,0.670314406249,1
3,154,8,180,0.6,6,1.0,comp,left,1.05840714477,1
3,155,8,180,0.6,6,-2.0,comp,right,1.10547245261,1
3,156,8,180,0.8,6,0.5,comp,left,0.882025118313,1
3,157,8,0,0.0,6,-1.5,comp,left,0.717391595979,1
3,158,8,0,0.2,6,2.0,comp,right,1.56409607772,1
3,159,8,0,0.8,6,0.5,comp,left,0.89379431992,1
3,160,8,180,0.6,6,-1.5,comp,right,0.729092189271,1
3,161,8,180,0.8,6,0.0,comp,right,0.893771322721,1
3,162,8,0,0.2,6,-1.0,comp,left,0.658571651424,1
3,163,8,0,0.4,6,2.0,comp,right,0.635052412537,1
3,164,8,0,0.6,6,1.5,comp,right,0.670328204571,1
3,165,8,180,0.2,6,-1.0,comp,right,0.705634276259,1
3,166,8,0,0.8,6,-1.0,comp,left,0.693842077446,1
3,167,8,180,0.2,6,0.5,comp,left,0.799723880256,1
3,168,8,180,0.8,6,-1.5,comp,right,0.658567051985,1
3,169,8,180,0.0,6,-1.5,comp,right,0.776146381788,1
3,170,8,180,0.0,6,2.0,comp,left,0.917284812305,1
3,171,8,180,0.8,6,2.0,comp,left,0.682085907589,1
3,172,8,0,0.6,6,1.0,comp,left,0.705606679614,1
3,173,8,180,0.0,6,1.5,comp,left,0.70558713199,1
3,174,8,180,0.6,6,2.0,comp,left,0.870265498867,1
3,175,8,0,0.6,6,-2.0,comp,left,0.658621478695,1
3,176,8,180,0.0,6,-2.0,comp,right,0.599767421627,1
3,177,8,0,0.8,6,0.0,comp,right,0.917323140973,1
3,178,8,0,0.4,6,-1.5,comp,left,0.729128984793,1
3,179,8,0,0.6,6,-1.5,comp,left,0.68209089031,1
3,180,8,0,0.4,6,-0.5,comp,left,1.17600563892,1
3,181,8,180,0.4,6,-2.0,comp,right,0.68211197108,1
3,182,8,180,0.0,6,0.5,comp,left,0.764436206337,1
3,183,8,0,0.6,6,2.0,comp,right,0.599766271764,1
3,184,8,180,0.6,6,0.5,comp,left,0.705623927519,1
3,185,8,180,0.8,6,-0.5,comp,left,0.670701525829,1
3,186,8,0,0.8,6,1.0,comp,right,0.588002819452,1
3,187,8,0,0.2,6,-1.0,comp,right,0.62331732345,1
3,188,8,0,0.4,6,-0.5,comp,right,0.776172445294,1
3,189,8,180,0.6,6,1.5,comp,left,0.764373347316,1
3,190,8,0,0.8,6,2.0,comp,right,0.67034353604,1
3,191,8,0,0.0,6,0.0,comp,right,0.799708548788,1
3,192,8,0,0.4,6,0.5,comp,right,0.811428306413,1
3,193,8,180,0.2,6,-2.0,comp,right,0.940852345309,1
3,194,8,0,0.0,6,0.5,comp,right,0.611535473377,1
3,195,8,0,0.8,6,0.0,comp,right,0.693852809476,1
3,196,8,0,0.2,6,1.0,comp,right,0.59978888568,1
3,197,8,0,0.2,6,-1.5,comp,left,0.740861007595,1
3,198,8,0,0.2,6,1.5,comp,right,0.646828896599,1
3,199,8,0,0.4,6,-2.0,comp,left,0.646781752337,1
3,200,8,180,0.2,6,0.0,comp,left,0.670308273671,1
3,201,8,180,0.4,6,-0.5,comp,left,0.905559305378,1
3,202,8,180,0.4,6,-1.0,comp,right,0.717364765907,1
3,203,8,0,0.0,6,1.0,comp,right,0.658559386255,1
3,204,8,0,0.8,6,-1.5,comp,right,1.03489212204,1
3,205,8,0,0.4,6,1.5,comp,right,0.740900486126,1
3,206,8,0,0.8,6,1.5,comp,right,0.646818164576,1
3,207,8,0,0.6,6,0.5,comp,right,0.670332037444,1
3,208,8,0,0.6,6,1.0,comp,right,0.576221352676,1
3,209,8,0,0.4,6,-1.5,comp,left,0.905516377265,1
3,210,8,0,0.0,6,2.0,comp,right,0.682099705904,1
3,211,8,0,0.6,6,-1.5,comp,left,0.764390211931,1
3,212,8,0,0.4,6,-1.0,comp,right,0.881994838659,1
3,213,8,0,0.2,6,-0.5,comp,left,0.776194292637,1
3,214,8,180,0.0,6,0.0,comp,left,0.811456286348,1
3,215,8,180,0.2,6,0.5,comp,left,0.670336636882,1
3,216,8,180,0.6,6,-1.5,comp,right,0.599745191001,1
3,217,8,180,0.2,6,1.0,comp,left,0.623310041003,1
3,218,8,0,0.6,6,1.5,comp,right,0.729136650523,1
3,219,8,180,0.8,6,-1.0,comp,right,0.505673218184,1
3,220,8,180,0.8,6,2.0,comp,left,0.799691300883,1
3,221,8,0,0.0,6,-0.5,comp,right,0.740853725147,1
3,222,8,180,0.6,6,0.0,comp,left,0.576276545959,1
3,223,8,180,0.8,6,0.5,comp,left,0.870222570753,1
3,224,8,180,0.4,6,0.0,comp,left,0.858469850478,1
3,225,8,180,0.6,6,2.0,comp,left,0.623318090024,1
3,226,8,180,0.2,6,-0.5,comp,right,0.811457052921,1
3,227,8,180,0.0,6,-0.5,comp,left,0.85848518194,1
3,228,8,0,0.4,6,2.0,comp,right,0.635062377994,1
3,229,8,180,0.6,6,1.0,comp,left,0.717371665072,1
3,230,8,0,0.0,6,-2.0,comp,left,0.635048196382,1
3,231,8,180,0.8,6,-2.0,comp,left,1.11723973779,1
3,232,8,180,0.6,6,-0.5,comp,left,0.740918883886,1
3,233,8,0,0.6,6,0.0,comp,right,0.70558713199,1
3,234,8,0,0.0,6,-1.5,comp,left,0.987883540634,1
3,235,8,180,0.6,6,-2.0,comp,right,0.729151981992,1
3,236,8,180,0.8,6,0.0,comp,left,0.658619562266,1
3,237,8,180,0.4,6,-1.5,comp,right,0.62326519646,1
3,238,8,180,0.0,6,1.0,comp,right,0.976088658812,1
3,239,8,180,0.2,6,2.0,comp,left,0.623281677785,1
3,240,8,180,0.2,6,-1.0,comp,right,0.764418575141,1
3,241,8,180,0.2,6,1.5,comp,left,0.646819314432,1
3,242,8,180,0.0,6,1.5,comp,left,0.635069277152,1
3,243,8,180,0.0,6,-2.0,comp,right,0.682099322621,1
3,244,8,0,0.8,6,-0.5,comp,right,0.740908535146,1
3,245,8,0,0.0,6,1.5,comp,right,0.623305441564,1
3,246,8,180,0.0,6,2.0,comp,left,0.71734751801,1
3,247,8,0,0.2,6,2.0,comp,right,0.646810882121,1
3,248,8,0,0.2,6,0.5,comp,left,0.952566353633,1
3,249,8,0,0.2,6,-2.0,comp,right,0.65859733164,1
3,250,8,180,0.8,6,-1.5,comp,right,0.929067045661,1
3,251,8,0,0.4,6,0.0,comp,right,0.670329737724,1
3,252,8,180,0.6,6,-1.0,comp,right,0.846754309001,1
3,253,8,180,0.8,6,1.5,comp,left,0.787918266411,1
3,254,8,0,0.8,6,-2.0,comp,left,0.987868209166,1
3,255,8,0,0.0,6,-1.0,comp,right,0.529174442592,1
3,256,8,180,0.4,6,2.0,comp,left,0.729104454447,1
3,257,8,0,0.6,6,-1.0,comp,right,0.97609670784,1
3,258,8,0,0.8,6,-1.0,comp,left,1.37593296776,1
3,259,8,0,0.6,6,-2.0,comp,left,0.552725877562,1
3,260,8,180,0.4,6,1.5,comp,left,0.76441627543,1
3,261,8,180,0.0,6,-1.0,comp,left,0.776174361723,1
3,262,8,0,0.6,6,-0.5,comp,right,1.17601023836,1
3,263,8,0,0.8,6,0.5,comp,right,0.729105604303,1
3,264,8,180,0.2,6,-1.5,comp,right,1.01139511378,1
3,265,8,180,0.0,6,-1.5,comp,right,1.14077814101,1
3,266,8,180,0.8,6,1.0,comp,left,0.776146381788,1
3,267,8,0,0.4,6,1.0,comp,right,0.729132817658,1
3,268,8,0,0.2,6,0.0,comp,right,0.917276763284,1
3,269,8,180,0.4,6,0.5,comp,left,0.705593647865,1
3,270,8,180,0.4,6,1.0,comp,left,0.740928849336,1
4,1,8,180,0.4,6,-2.0,comp,right,0.729129751366,1
4,2,8,0,0.2,6,1.0,comp,right,0.776173595143,1
4,3,8,180,0.8,6,0.5,comp,left,0.599787352534,1
4,4,8,180,0.6,6,-1.0,comp,right,0.870283130054,1
4,5,8,180,0.4,6,0.0,comp,left,0.799692834029,1
4,6,8,180,0.6,6,0.0,comp,left,0.623288576942,1
4,7,8,180,0.8,6,1.0,comp,left,0.599737525263,1
4,8,8,0,0.4,6,-0.5,comp,right,0.670315172822,1
4,9,8,180,0.8,6,-0.5,comp,right,0.599779303513,1
4,10,8,180,0.6,6,0.5,comp,left,0.611553104565,1
4,11,8,180,0.4,6,0.5,comp,right,0.764429307172,1
4,12,8,0,0.0,6,0.0,comp,right,0.75265588941,1
4,13,8,0,0.0,6,-1.5,comp,left,0.788074264099,1
4,14,8,180,0.2,6,2.0,comp,left,0.56451194379,1
4,15,8,0,0.6,6,2.0,comp,right,0.63502519919,1
4,16,8,0,0.2,6,-2.0,comp,left,0.682072492549,1
4,17,8,180,0.4,6,-1.5,comp,right,0.823199041173,1
4,18,8,0,0.6,6,1.5,comp,right,0.787933597872,1
4,19,8,180,0.0,6,-1.0,comp,right,0.870227553482,1
4,20,8,180,0.2,6,-1.5,comp,right,0.882042366211,1
4,21,8,0,0.8,6,1.5,comp,right,1.14077737443,1
4,22,8,180,0.6,6,2.0,comp,left,0.682110437927,1
4,23,8,0,0.8,6,-1.0,comp,left,1.01137824917,1
4,24,8,0,0.0,6,1.5,comp,right,0.611564603169,1
4,25,8,0,0.2,6,0.0,comp,right,0.740890137386,1
4,26,8,0,0.2,6,1.5,comp,right,0.599774320792,1
4,27,8,180,0.2,6,0.0,comp,left,1.01138093218,1
4,28,8,0,0.8,6,-0.5,comp,right,0.764387912212,1
4,29,8,180,0.8,6,2.0,comp,left,0.646805516109,1
4,30,8,0,0.2,6,-1.0,comp,left,0.529209704975,1
4,31,8,180,0.2,6,-2.0,comp,right,0.717370515216,1
4,32,8,0,0.2,6,0.5,comp,right,0.646831579608,1
4,33,8,0,0.6,6,-1.0,comp,left,1.2230406671,1
4,34,8,0,0.6,6,-2.0,comp,left,0.670356951079,1
4,35,8,0,0.0,6,2.0,comp,right,0.623320006453,1
4,36,8,180,0.6,6,-1.5,comp,right,0.63506621086,1
4,37,8,0,0.6,6,0.5,comp,right,0.717324520803,1
4,38,8,180,0.0,6,0.5,comp,left,0.670292558905,1
4,39,8,0,0.6,6,-0.5,comp,left,0.611530107366,1
4,40,8,180,0.8,6,0.0,comp,left,0.599747107437,1
4,41,8,0,0.8,6,-2.0,comp,left,0.705610895769,1
4,42,8,180,0.2,6,-0.5,comp,right,0.740936515074,1
4,43,8,0,0.4,6,-1.0,comp,left,0.893802752231,1
4,44,8,0,0.4,6,0.0,comp,left,0.588002436176,1
4,45,8,180,0.8,6,-2.0,comp,right,0.729151215426,1
4,46,8,180,0.2,6,1.5,comp,left,0.764410142838,1
4,47,8,180,0.4,6,-0.5,comp,left,0.670305207372,1
4,48,8,0,0.4,6,2.0,comp,right,0.599767804917,1
4,49,8,180,0.4,6,2.0,comp,left,0.717331419961,1
4,50,8,180,0.2,6,0.5,comp,left,0.834952911311,1
4,51,8,0,0.4,6,-1.5,comp,left,0.70555340276,1
4,52,8,0,0.6,6,-1.5,comp,left,0.564473615123,1
4,53,8,0,0.0,6,-0.5,comp,left,0.799685551588,1
4,54,8,180,0.0,6,-1.5,comp,right,0.834965176487,1
4,55,8,0,0.4,6,0.5,comp,right,0.635024432617,1
4,56,8,0,0.4,6,1.0,comp,right,0.62328014463899994,1
4,57,8,0,0.6,6,0.0,comp,right,0.564509644071,1
4,58,8,0,0.6,6,1.0,comp,right,0.858516611457,1
4,59,8,180,0.6,6,1.5,comp,left,0.623292026532,1
4,60,8,0,0.8,6,-1.5,comp,right,0.799678652424,1
4,61,8,0,0.4,6,1.5,comp,right,0.564465182812,1
4,62,8,180,0.6,6,-2.0,comp,right,0.646784052049,1
4,63,8,0,0.8,6,2.0,comp,right,0.729133967521,1
4,64,8,180,0.8,6,1.5,comp,left,0.658565135549,1
4,65,8,0,0.0,6,0.5,comp,right,0.623273245474,1
4,66,8,180,0.4,6,1.5,comp,left,0.623099616598,1
4,67,8,180,0.0,6,1.0,comp,left,0.588004352605,1
4,68,8,0,0.0,6,1.0,comp,right,0.576226718687,1
4,69,8,180,0.0,6,-0.5,comp,right,0.964386532381,1
4,70,8,0,0.2,6,-0.5,comp,right,0.564517693092,1
4,71,8,180,0.8,6,-1.0,comp,right,0.835015003759,1
4,72,8,180,0.6,6,1.0,comp,right,0.717382780385,1
4,73,8,0,0.8,6,0.0,comp,left,0.670316322685,1
4,74,8,180,0.2,6,-1.0,comp,right,0.717372814928,1
4,75,8,180,0.6,6,-0.5,comp,left,0.717377414367,1
4,76,8,0,0.8,6,1.0,comp,right,0.705615111925,1
4,77,8,0,0.4,6,-2.0,comp,right,0.905534775025,1
4,78,8,180,0.8,6,-1.5,comp,right,0.717492400385,1
4,79,8,180,0.0,6,1.5,comp,left,0.623308124566,1
4,80,8,180,0.0,6,0.0,comp,left,0.917266031254,1
4,81,8,180,0.0,6,-2.0,comp,right,0.552718978404,1
4,82,8,0,0.2,6,2.0,comp,right,0.764407076545,1
4,83,8,0,0.2,6,-1.5,comp,left,0.552746191759,1
4,84,8,180,0.2,6,1.0,comp,left,0.635078859319,1
4,85,8,0,0.8,6,0.5,comp,left,0.552715912112,1
4,86,8,0,0.0,6,-1.0,comp,left,0.658540988486,1
4,87,8,180,0.0,6,2.0,comp,left,0.670335103729,1
4,88,8,180,0.4,6,1.0,comp,right,0.552723961126,1
4,89,8,0,0.0,6,-2.0,comp,left,0.611504043867,1
4,90,8,180,0.4,6,-1.0,comp,right,0.787929381724,1
4,91,8,180,0.4,6,-2.0,comp,right,0.799692834029,1
4,92,8,180,0.6,6,-1.5,comp,right,0.505688932943,1
4,93,8,180,0.6,6,-0.5,comp,right,0.635258237497,1
4,94,8,180,0.8,6,2.0,comp,left,0.682102772196,1
4,95,8,0,0.2,6,-2.0,comp,left,0.529176742319,1
4,96,8,180,0.4,6,1.0,comp,left,0.658566668702,1
4,97,8,180,0.8,6,1.5,comp,left,0.56448051428,1
4,98,8,180,0.2,6,0.5,comp,right,0.635086525064,1
4,99,8,0,0.2,6,0.0,comp,left,0.587985954837,1
4,100,8,180,0.2,6,2.0,comp,left,0.611501744148,1
4,101,8,180,0.4,6,-1.0,comp,right,0.623318856589,1
4,102,8,180,0.6,6,-1.0,comp,right,0.999599848677,1
4,103,8,0,0.2,6,-1.0,comp,left,0.682101622333,1
4,104,8,180,0.6,6,1.0,comp,left,0.646849210789,1
4,105,8,180,0.0,6,-1.0,comp,right,0.893778605168,1
4,106,8,0,0.6,6,0.0,comp,right,0.599741358128,1
4,107,8,180,0.2,6,1.5,comp,left,0.705578699686,1
4,108,8,180,0.8,6,-2.0,comp,right,0.646789418068,1
4,109,8,0,0.0,6,1.0,comp,right,0.599791951972,1
4,110,8,0,0.8,6,-2.0,comp,left,0.599742891281,1
4,111,8,180,0.4,6,0.0,comp,left,0.682054861361,1
4,112,8,180,0.0,6,-0.5,comp,left,0.670307123808,1
4,113,8,180,0.8,6,-0.5,comp,right,0.623262896741,1
4,114,8,0,0.6,6,-1.0,comp,left,0.670349285348,1
4,115,8,0,0.8,6,-1.5,comp,left,0.540988488749,1
4,116,8,0,0.0,6,-1.0,comp,left,0.787953145496,1
4,117,8,0,0.8,6,2.0,comp,right,0.705608979333,1
4,118,8,180,0.0,6,2.0,comp,left,0.811444404455,1
4,119,8,180,0.6,6,1.5,comp,left,0.670420193383,1
4,120,8,180,0.8,6,-1.5,comp,right,0.540940577914,1
4,121,8,0,0.2,6,2.0,comp,right,0.623289343515,1
4,122,8,0,0.6,6,-2.0,comp,left,0.611556554148,1
4,123,8,180,0.2,6,-0.5,comp,left,0.611547738547,1
4,124,8,0,0.4,6,-2.0,comp,left,0.599743657847,1
4,125,8,0,0.4,6,2.0,comp,left,0.787932448016,1
4,126,8,180,0.0,6,-2.0,comp,right,0.740923100035,1
4,127,8,180,0.4,6,-1.5,comp,right,0.740888604239,1
4,128,8,0,0.6,6,0.5,comp,right,0.611503660584,1
4,129,8,180,0.0,6,1.0,comp,left,0.587993237292,1
4,130,8,180,0.4,6,-0.5,comp,left,0.611498677848,1
4,131,8,0,0.2,6,1.0,comp,right,0.50568586665,1
4,132,8,180,0.4,6,1.5,comp,left,0.670365000093,1
4,133,8,180,0.8,6,-1.0,comp,right,0.717391595979,1
4,134,8,0,0.6,6,-0.5,comp,right,0.611511709598,1
4,135,8,0,0.4,6,1.5,comp,right,1.23482290046,1
4,136,8,180,0.6,6,0.5,comp,left,0.870369369564,1
4,137,8,0,0.8,6,-0.5,comp,right,0.717359399896,1
4,138,8,0,0.4,6,-0.5,comp,right,0.823202490748,1
4,139,8,0,0.2,6,1.5,comp,right,0.588013934772,1
4,140,8,0,0.4,6,-1.0,comp,right,0.799675969422,1
4,141,8,180,0.8,6,1.0,comp,left,0.68210162234,1
4,142,8,180,0.8,6,0.5,comp,left,0.705660723041,1
4,143,8,0,0.0,6,-1.5,comp,left,0.611524358057,1
4,144,8,0,0.0,6,-0.5,comp,right,1.08193059981,1
4,145,8,180,0.6,6,0.0,comp,right,0.870240968514,1
4,146,8,0,0.4,6,-1.5,comp,right,0.893790870345,1
4,147,8,180,0.2,6,0.0,comp,left,0.611529724076,1
4,148,8,0,0.8,6,1.5,comp,right,0.740876722346,1
4,149,8,180,0.2,6,1.0,comp,left,0.635013700587,1
4,150,8,0,0.8,6,0.0,comp,right,0.68210123905,1
4,151,8,180,0.6,6,-2.0,comp,right,0.799718130955,1
4,152,8,0,0.2,6,0.5,comp,right,0.64680321639,1
4,153,8,180,0.2,6,-2.0,comp,left,0.658557469811,1
4,154,8,180,0.4,6,0.5,comp,right,0.56448319729,1
4,155,8,0,0.0,6,-2.0,comp,right,0.929034849578,1
4,156,8,0,0.4,6,0.5,comp,right,0.940900639434,1
4,157,8,0,0.8,6,0.5,comp,right,0.599763972044,1
4,158,8,180,0.0,6,0.0,comp,left,0.623291259952,1
4,159,8,0,0.2,6,-0.5,comp,left,0.870232152927,1
4,160,8,0,0.4,6,0.0,comp,left,0.693857408914,1
4,161,8,180,0.0,6,0.5,comp,left,0.870246717823,1
4,162,8,0,0.2,6,-1.5,comp,right,0.517481898329,1
4,163,8,0,0.0,6,1.5,comp,right,0.576512267282,1
4,164,8,0,0.6,6,2.0,comp,right,0.71733371968,1
4,165,8,0,0.6,6,1.0,comp,right,0.59980766673100006,1
4,166,8,0,0.6,6,-1.5,comp,right,1.09370746715,1
4,167,8,180,0.6,6,2.0,comp,left,0.693841694156,1
4,168,8,0,0.0,6,0.0,comp,left,0.599779303513,1
4,169,8,0,0.8,6,1.0,comp,right,0.752646690526,1
4,170,8,180,0.2,6,-1.0,comp,left,0.79969053431,1
4,171,8,0,0.4,6,1.0,comp,right,0.717395045554,1
4,172,8,180,0.2,6,-1.5,comp,left,0.564481664143,1
4,173,8,0,0.8,6,-1.0,comp,right,0.717245947031,1
4,174,8,0,0.6,6,1.5,comp,right,0.599806516875,1
4,175,8,0,0.0,6,2.0,comp,right,0.729096405426,1
4,176,8,180,0.4,6,2.0,comp,left,0.670294858632,1
4,177,8,180,0.0,6,-1.5,comp,right,0.564486263582,1
4,178,8,0,0.0,6,0.5,comp,right,0.658567435268,1
4,179,8,180,0.0,6,1.5,comp,left,0.940821299089,1
4,180,8,180,0.8,6,0.0,comp,right,0.658569734995,1
4,181,8,0,0.8,6,-2.0,comp,left,0.72907340822,1
4,182,8,0,0.8,6,-1.5,comp,left,0.72913588395,1
4,183,8,180,0.4,6,-1.5,comp,right,0.870250550688,1
4,184,8,0,0.4,6,-2.0,comp,left,0.776167845848,1
4,185,8,180,0.0,6,-0.5,comp,right,1.14071949814,1
4,186,8,0,0.0,6,0.0,comp,left,1.08193673239,1
4,187,8,180,0.0,6,-1.0,comp,right,0.811424473548,1
4,188,8,180,0.4,6,1.0,comp,left,0.717370515209,1
4,189,8,180,0.4,6,0.5,comp,left,0.623234150233,1
4,190,8,180,0.6,6,1.0,comp,left,0.705595947584,1
4,191,8,0,0.6,6,-1.5,comp,left,0.623277844912,1
4,192,8,180,0.4,6,-2.0,comp,right,0.882030101035,1
4,193,8,0,0.4,6,-1.0,comp,left,0.999642010218,1
4,194,8,180,0.2,6,0.0,comp,right,0.776137949484,1
4,195,8,0,0.6,6,-0.5,comp,left,0.693822913105,1
4,196,8,180,0.8,6,-2.0,comp,right,0.517448935672,1
4,197,8,180,0.6,6,-2.0,comp,right,0.552705563372,1
4,198,8,0,0.6,6,2.0,comp,right,0.611550804846,1
4,199,8,180,0.6,6,1.5,comp,left,0.623315407014,1
4,200,8,180,0.8,6,0.5,comp,left,0.787898335504,1
4,201,8,0,0.0,6,1.0,comp,right,0.646819697715,1
4,202,8,180,0.2,6,1.5,comp,left,0.576278079105,1
4,203,8,0,0.2,6,-0.5,comp,right,0.858471000342,1
4,204,8,0,0.6,6,0.0,comp,right,0.599767038337,1
4,205,8,180,0.2,6,-1.5,comp,right,0.552746575049,1
4,206,8,0,0.4,6,2.0,comp,right,0.623271329045,1
4,207,8,0,0.0,6,2.0,comp,right,0.729128601502,1
4,208,8,0,0.2,6,-1.5,comp,left,0.599760905752,1
4,209,8,0,0.0,6,-0.5,comp,left,0.858525427051,1
4,210,8,180,0.8,6,-1.5,comp,right,0.740625669554,1
4,211,8,180,0.8,6,2.0,comp,right,0.693845527028,1
4,212,8,180,0.2,6,2.0,comp,left,0.705595564301,1
4,213,8,0,0.4,6,-1.5,comp,right,0.811467401662,1
4,214,8,180,0.0,6,1.0,comp,left,0.6350248159,1
4,215,8,0,0.8,6,0.0,comp,right,0.658558619674,1
4,216,8,180,0.0,6,-1.5,comp,right,0.693818313666,1
4,217,8,180,0.2,6,-1.0,comp,right,0.576252398896,1
4,218,8,180,0.0,6,0.5,comp,right,1.31715288502,1
4,219,8,180,0.0,6,2.0,comp,left,0.752674670461,1
4,220,8,0,0.8,6,1.5,comp,left,0.658580850308,1
4,221,8,180,0.0,6,0.0,comp,left,0.964319457198,1
4,222,8,0,0.2,6,0.5,comp,right,0.75264324095,1
4,223,8,180,0.4,6,2.0,comp,left,0.599790418826,1
4,224,8,0,0.2,6,1.0,comp,right,0.552723577843,1
4,225,8,180,0.4,6,1.5,comp,left,0.846762741312,1
4,226,8,180,0.2,6,1.0,comp,left,0.740890137386,1
4,227,8,0,0.8,6,0.5,comp,right,0.729130517939,1
4,228,8,180,0.6,6,-1.0,comp,right,0.776148298224,1
4,229,8,180,0.8,6,0.0,comp,right,0.940837397131,1
4,230,8,180,0.2,6,-2.0,comp,right,0.529229635882,1
4,231,8,0,0.2,6,-1.0,comp,left,0.552739292601,1
4,232,8,0,0.2,6,1.5,comp,right,0.576256231761,1
4,233,8,0,0.2,6,-2.0,comp,right,1.08192715023,1
4,234,8,180,0.8,6,-1.0,comp,right,0.682071725969,1
4,235,8,0,0.0,6,-1.0,comp,left,0.67030252437,1
4,236,8,180,0.0,6,-2.0,comp,right,0.552711312666,1
4,237,8,0,0.8,6,2.0,comp,right,0.529214687704,1
4,238,8,180,0.6,6,2.0,comp,left,0.599765888481,1
4,239,8,180,0.2,6,-0.5,comp,right,0.599796551411,1
4,240,8,0,0.2,6,0.0,comp,right,0.71735480045,1
4,241,8,0,0.4,6,1.0,comp,right,0.670309040237,1
4,242,8,0,0.6,6,1.0,comp,right,0.79968056886,1
4,243,8,0,0.0,6,-2.0,comp,left,0.752665854867,1
4,244,8,0,0.4,6,0.0,comp,left,1.04669505289,1
4,245,8,180,0.0,6,1.5,comp,left,0.540972007424,1
4,246,8,0,0.6,6,0.5,comp,right,0.529202039244,1
4,247,8,180,0.6,6,-1.5,comp,right,0.729137033813,1
4,248,8,0,0.6,6,-2.0,comp,left,0.835006571455,1
4,249,8,180,0.6,6,-0.5,comp,left,0.729127068356,1
4,250,8,0,0.6,6,-1.0,comp,right,0.705619328073,1
4,251,8,180,0.8,6,1.5,comp,left,0.658556703245,1
4,252,8,180,0.4,6,-1.0,comp,right,0.740870589754,1
4,253,8,180,0.2,6,0.5,comp,left,0.635019449881,1
4,254,8,0,0.4,6,0.5,comp,right,0.599770871209,1
4,255,8,0,0.0,6,1.5,comp,right,0.65856283583,1
4,256,8,180,0.8,6,-0.5,comp,left,0.682070576113,1
4,257,8,0,0.6,6,1.5,comp,left,0.658562069257,1
4,258,8,0,0.8,6,-0.5,comp,right,0.976118171886,1
4,259,8,0,0.4,6,1.5,comp,right,0.917279063004,1
4,260,8,0,0.2,6,2.0,comp,right,0.670346602332,1
4,261,8,0,0.8,6,-1.0,comp,left,0.599763205471,1
4,262,8,180,0.4,6,-0.5,comp,left,0.752648990252,1
4,263,8,0,0.4,6,-0.5,comp,left,0.752648223679,1
4,264,8,180,0.6,6,0.0,comp,left,0.987880857625,1
4,265,8,180,0.4,6,0.0,comp,left,0.63504283037,1
4,266,8,180,0.6,6,0.5,comp,left,0.65857395115,1
4,267,8,180,0.8,6,1.0,comp,right,0.623338020931,1
4,268,8,0,0.8,6,1.0,comp,right,0.70562891024,1
4,269,8,0,0.0,6,-1.5,comp,left,0.564451384489,1
4,270,8,0,0.0,6,0.5,comp,right,0.717391212696,1
1,1,8,0,0.8,6,1.0,comp,right,1.39943649188,2
1,2,8,0,0.6,6,-2.0,comp,right,1.35241334558,2
1,3,8,0,0.6,6,2.0,comp,right,0.917321991114,2
1,4,8,0,0.2,6,2.0,comp,right,0.882009403558,2
1,5,8,0,0.2,6,-0.5,comp,left,1.47000992329,2
1,6,8,0,0.8,6,1.5,comp,right,0.917302826776,2
1,7,8,0,0.8,6,2.0,comp,right,0.905561605097,2
1,8,8,0,0.6,6,-1.5,comp,left,0.823182176555,2
1,9,8,0,0.8,6,-0.5,comp,left,2.06982640562,2
1,10,8,0,0.8,6,0.5,comp,right,0.799701649627,2
1,11,8,0,0.4,6,-1.0,comp,left,0.976115105597,2
1,12,8,0,0.6,6,0.5,comp,right,0.858485948516,2
1,13,8,0,0.0,6,-1.0,comp,left,0.94078756986,2
1,14,8,0,0.2,6,0.0,comp,right,0.940811333636,2
1,15,8,0,0.4,6,1.5,comp,right,0.91730052706,2
1,16,8,0,0.0,6,1.5,comp,right,0.834955594317,2
1,17,8,0,0.8,6,-1.5,comp,left,0.752673520601,2
1,18,8,0,0.2,6,-1.0,comp,left,1.83460028754,2
1,19,8,0,0.0,6,-2.0,comp,left,1.77582633739,2
1,20,8,0,0.2,6,1.5,comp,right,0.764385612489,2
1,21,8,0,0.4,6,-2.0,comp,left,1.08190721932,2
1,22,8,0,0.2,6,-2.0,comp,left,0.905583835727,2
1,23,8,0,0.0,6,0.5,comp,left,2.09332418045,2
1,24,8,0,0.2,6,0.5,comp,left,1.66999551171,2
1,25,8,0,0.0,6,-0.5,comp,left,1.10548318464,2
1,26,8,0,0.6,6,0.0,comp,left,3.48104206457,2
1,27,8,0,0.4,6,-1.5,comp,left,1.04668930358,2
1,28,8,0,0.6,6,1.0,comp,right,0.811428306413,2
1,29,8,0,0.4,6,0.5,comp,right,0.834952144738,2
1,30,8,0,0.6,6,-1.0,comp,left,0.83497859152,2
1,31,8,0,0.2,6,-1.5,comp,left,1.14075591038,2
1,32,8,0,0.8,6,-1.0,comp,left,1.01155801063,2
1,33,8,0,0.6,6,-0.5,comp,left,0.964343604268,2
1,34,8,0,0.8,6,-2.0,comp,left,1.28187632641,2
1,35,8,0,0.0,6,1.0,comp,right,1.17603131912,2
1,36,8,0,0.2,6,1.0,comp,right,1.11720600856,2
1,37,8,0,0.0,6,2.0,comp,right,0.929042898599,2
1,38,8,0,0.0,6,-1.5,comp,left,0.82314308131,2
1,39,8,0,0.6,6,1.5,comp,right,0.823211306346,2
1,40,8,0,0.4,6,-0.5,comp,left,1.56409607771,2
1,41,8,0,0.4,6,1.0,comp,right,0.952576702377,2
1,42,8,0,0.4,6,0.0,comp,left,1.66995220031,2
1,43,8,0,0.8,6,0.0,comp,left,1.30538598313,2
1,44,8,0,0.4,6,2.0,comp,right,0.92906129636,2
1,45,8,0,0.0,6,0.0,comp,left,1.21109170403,2
1,46,8,0,0.4,6,1.0,comp,left,1.32892400306,2
1,47,8,0,0.8,6,0.0,comp,left,0.999605981266,2
1,48,8,0,0.4,6,-2.0,comp,left,0.893775155586,2
1,49,8,0,0.6,6,-1.5,comp,left,1.32890982145,2
1,50,8,0,0.2,6,1.5,comp,right,0.976120854899,2
1,51,8,0,0.0,6,0.0,comp,left,1.28190583949,2
1,52,8,0,0.8,6,-1.0,comp,left,0.929099241745,2
1,53,8,0,0.8,6,2.0,comp,right,1.30537065166,2
1,54,8,0,0.8,6,-0.5,comp,left,1.29365166061,2
1,55,8,0,0.6,6,-2.0,comp,left,1.01136560071,2
1,56,8,0,0.4,6,0.0,comp,left,1.14072179786,2
1,57,8,0,0.2,6,0.0,comp,left,1.41123022384,2
1,58,8,0,0.0,6,-2.0,comp,left,0.999599082104,2
1,59,8,0,0.6,6,1.5,comp,right,0.917297077478,2
1,60,8,0,0.4,6,0.5,comp,left,1.034933517,2
1,61,8,0,0.2,6,1.0,comp,left,1.15248908303,2
1,62,8,0,0.2,6,0.5,comp,left,1.11722402303,2
1,63,8,0,0.0,6,1.0,comp,right,1.05843474141,2
1,64,8,0,0.2,6,-0.5,comp,right,1.3994966679,2
1,65,8,0,0.4,6,-1.0,comp,right,1.10548318464,2
1,66,8,0,0.6,6,-1.0,comp,right,1.07015373246,2
1,67,8,0,0.6,6,1.0,comp,right,0.823211306346,2
1,68,8,0,0.8,6,1.5,comp,right,0.881999821388,2
1,69,8,0,0.2,6,2.0,comp,right,1.03492738441,2
1,70,8,0,0.4,6,-1.5,comp,left,0.976076393643,2
1,71,8,0,0.0,6,1.5,comp,right,0.870211072157,2
1,72,8,0,0.8,6,-1.5,comp,left,0.964327889513,2
1,73,8,0,0.0,6,-1.5,comp,left,1.44653361252,2
1,74,8,0,0.8,6,-2.0,comp,left,1.01139051434,2
1,75,8,0,0.6,6,-0.5,comp,right,0.96433747168,2
1,76,8,0,0.8,6,1.0,comp,right,0.99965580854,2
1,77,8,0,0.6,6,0.0,comp,right,1.35244784139,2
1,78,8,0,0.2,6,-2.0,comp,left,1.70526210487,2
1,79,8,0,0.2,6,-1.5,comp,left,2.21098361718,2
1,80,8,0,0.0,6,0.5,comp,right,1.8698925609,2
1,81,8,0,0.0,6,-0.5,comp,right,1.91690037574,2
1,82,8,0,0.4,6,-0.5,comp,right,1.10546861974,2
1,83,8,0,0.8,6,0.5,comp,right,1.4700126063,2
1,84,8,0,0.2,6,-1.0,comp,left,0.846702948584,2
1,85,8,0,0.6,6,2.0,comp,right,1.23483286592,2
1,86,8,0,0.0,6,-1.0,comp,left,1.12896102856,2
1,87,8,0,0.4,6,2.0,comp,right,0.776183177317,2
1,88,8,0,0.4,6,1.5,comp,right,1.54058488785,2
1,89,8,0,0.0,6,2.0,comp,right,1.0349135861,2
1,90,8,0,0.6,6,0.5,comp,left,1.07018554526,2
1,91,8,0,0.0,6,1.0,comp,right,0.952543356434,2
1,92,8,0,0.4,6,-2.0,comp,left,0.893820766702,2
1,93,8,0,0.6,6,-1.0,comp,left,1.31697772299,2
1,94,8,0,0.0,6,-0.5,comp,right,1.62291295597,2
1,95,8,0,0.6,6,2.0,comp,right,0.88204619908,2
1,96,8,0,0.6,6,1.0,comp,left,1.08194478142,2
1,97,8,0,0.8,6,-1.5,comp,left,1.15250403122,2
1,98,8,0,0.8,6,-0.5,comp,right,1.18780358702,2
1,99,8,0,0.4,6,-1.5,comp,left,1.02317198113,2
1,100,8,0,0.2,6,1.5,comp,right,1.09368868611,2
1,101,8,0,0.6,6,-1.5,comp,left,1.48182051987,2
1,102,8,0,0.0,6,0.0,comp,right,1.10548203478,2
1,103,8,0,0.0,6,-1.5,comp,right,1.1877526099,2
1,104,8,0,0.2,6,2.0,comp,right,0.952586667834,2
1,105,8,0,0.8,6,-1.0,comp,left,0.91732390755,2
1,106,8,0,0.2,6,1.0,comp,right,0.811430989419,2
1,107,8,0,0.8,6,1.0,comp,left,0.976097474406,2
1,108,8,0,0.8,6,2.0,comp,right,0.776178194588,2
1,109,8,0,0.0,6,-2.0,comp,left,1.08193903212,2
1,110,8,0,0.0,6,-1.0,comp,right,1.17602173696,2
1,111,8,0,0.8,6,0.5,comp,right,1.32888720754,2
1,112,8,0,0.0,6,0.5,comp,right,0.952400390492,2
1,113,8,0,0.6,6,-2.0,comp,left,0.999661174552,2
1,114,8,0,0.0,6,2.0,comp,right,0.893797002929,2
1,115,8,0,0.6,6,-0.5,comp,left,1.36419366251,2
1,116,8,0,0.4,6,1.5,comp,right,1.04662567799,2
1,117,8,0,0.0,6,1.5,comp,right,0.882023201877,2
1,118,8,0,0.2,6,0.0,comp,right,1.1172017924,2
1,119,8,0,0.6,6,0.0,comp,right,1.04663909302,2
1,120,8,0,0.2,6,-2.0,comp,left,1.3524417088,2
1,121,8,0,0.6,6,1.5,comp,right,2.17567179619,2
1,122,8,0,0.4,6,2.0,comp,right,0.858496680547,2
1,123,8,0,0.2,6,-0.5,comp,left,1.59942744632,2
1,124,8,0,0.6,6,0.5,comp,right,1.28185447907,2
1,125,8,0,0.4,6,-1.0,comp,left,1.09370593401,2
1,126,8,0,0.4,6,1.0,comp,left,1.1995248778,2
1,127,8,0,0.4,6,-0.5,comp,left,0.87024556796,2
1,128,8,0,0.2,6,0.5,comp,right,1.51707293141,2
1,129,8,0,0.2,6,-1.5,comp,left,0.752676203607,2
1,130,8,0,0.8,6,-2.0,comp,left,0.740898569689,2
1,131,8,0,0.4,6,0.0,comp,right,1.79932602865,2
1,132,8,0,0.4,6,0.5,comp,right,1.31714713572,2
1,133,8,0,0.8,6,1.5,comp,right,1.42297374524,2
1,134,8,0,0.8,6,0.0,comp,left,1.023121004,2
1,135,8,0,0.2,6,-1.0,comp,left,1.25836092039,2
1,136,8,0,0.2,6,1.5,comp,left,1.19952602766,2
1,137,8,0,0.0,6,-2.0,comp,left,1.22300962088,2
1,138,8,0,0.4,6,1.5,comp,left,1.14072294772,2
1,139,8,0,0.4,6,-0.5,comp,left,1.05843435813,2
1,140,8,0,0.4,6,0.5,comp,left,1.14075552709,2
1,141,8,0,0.6,6,-1.0,comp,left,1.07016676421,2
1,142,8,0,0.8,6,1.0,comp,right,1.49358473875,2
1,143,8,0,0.8,6,0.5,comp,right,0.964319457205,2
1,144,8,0,0.2,6,1.0,comp,right,1.76431700417,2
1,145,8,0,0.6,6,-1.5,comp,right,1.08196739533,2
1,146,8,0,0.2,6,2.0,comp,right,1.1760205871,2
1,147,8,0,0.6,6,1.0,comp,right,0.929058230067,2
1,148,8,0,0.4,6,-1.0,comp,right,0.964348586993,2
1,149,8,0,0.0,6,-0.5,comp,right,1.01139319735,2
1,150,8,0,0.4,6,0.0,comp,right,0.9290716451,2
1,151,8,0,0.2,6,-2.0,comp,right,1.16427169968,2
1,152,8,0,0.8,6,-2.0,comp,left,0.952611198183,2
1,153,8,0,0.6,6,1.5,comp,right,0.882033933904,2
1,154,8,0,0.4,6,-1.5,comp,left,0.870235602506,2
1,155,8,0,0.0,6,1.5,comp,right,0.787970010115,2
1,156,8,0,0.2,6,0.0,comp,left,0.952545656157,2
1,157,8,0,0.6,6,0.0,comp,left,1.1877840394,2
1,158,8,0,0.0,6,-1.0,comp,left,0.952581685106,2
1,159,8,0,0.2,6,-0.5,comp,left,0.92905094762,2
1,160,8,0,0.0,6,0.5,comp,right,0.882017452575,2
1,161,8,0,0.8,6,-1.0,comp,left,0.964339771403,2
1,162,8,0,0.4,6,2.0,comp,right,1.09372701477,2
1,163,8,0,0.8,6,0.0,comp,left,1.17598494143,2
1,164,8,0,0.8,6,1.5,comp,right,0.882017069289,2
1,165,8,0,0.6,6,0.5,comp,right,0.882039299919,2
1,166,8,0,0.0,6,2.0,comp,right,1.09370363429,2
1,167,8,0,0.2,6,-1.5,comp,left,1.08196969505,2
1,168,8,0,0.8,6,2.0,comp,right,1.05839871246,2
1,169,8,0,0.4,6,-2.0,comp,left,1.18774034472,2
1,170,8,0,0.0,6,0.0,comp,right,1.634678708,2
1,171,8,0,0.2,6,0.5,comp,right,1.10545750443,2
1,172,8,0,0.6,6,2.0,comp,right,0.881983340059,2
1,173,8,0,0.0,6,1.0,comp,left,1.62294936821,2
1,174,8,0,0.2,6,-1.0,comp,left,0.917294777759,2
1,175,8,0,0.6,6,-0.5,comp,left,1.18779630458,2
1,176,8,0,0.0,6,-1.5,comp,left,0.929090426151,2
1,177,8,0,0.8,6,-0.5,comp,left,1.19957125549,2
1,178,8,0,0.8,6,-1.5,comp,left,1.1289828759,2
1,179,8,0,0.6,6,-2.0,comp,left,0.905555472509,2
1,180,8,0,0.4,6,1.0,comp,right,0.7761605634,2
1,181,8,0,0.0,6,-0.5,comp,right,1.61112918947,2
1,182,8,0,0.6,6,1.5,comp,right,0.858514695021,2
1,183,8,0,0.0,6,0.5,comp,left,1.04667243896,2
1,184,8,0,0.4,6,0.0,comp,left,2.14032892898,2
1,185,8,0,0.8,6,0.5,comp,left,0.870281213622,2
1,186,8,0,0.6,6,2.0,comp,right,1.50531292868,2
1,187,8,0,0.0,6,-1.0,comp,left,2.23446414411,2
1,188,8,0,0.4,6,1.0,comp,right,0.881974524465,2
1,189,8,0,0.2,6,-1.0,comp,left,0.976126604197,2
1,190,8,0,0.6,6,0.0,comp,right,1.10545482142,2
1,191,8,0,0.2,6,-0.5,comp,right,1.8110653339,2
1,192,8,0,0.8,6,-2.0,comp,left,1.10547973506,2
1,193,8,0,0.0,6,-1.5,comp,right,1.41122600769,2
1,194,8,0,0.0,6,2.0,comp,right,1.10545903758,2
1,195,8,0,0.4,6,2.0,comp,right,2.26974760187,2
1,196,8,0,0.8,6,1.5,comp,right,1.70523450822,2
1,197,8,0,0.8,6,-1.0,comp,left,1.02313441903,2
1,198,8,0,0.8,6,2.0,comp,left,1.7049872883,2
1,199,8,0,0.0,6,1.5,comp,right,0.823213606065,2
1,200,8,0,0.2,6,0.5,comp,right,0.999617096582,2
1,201,8,0,0.2,6,-2.0,comp,left,2.90479119882,2
1,202,8,0,0.4,6,-1.5,comp,left,1.55238628554,2
1,203,8,0,0.6,6,-2.0,comp,left,0.893788953908,2
1,204,8,0,0.8,6,0.0,comp,right,0.964369284477,2
1,205,8,0,0.8,6,-0.5,comp,right,0.646803982963,2
1,206,8,0,0.2,6,0.0,comp,left,1.04663487687,2
1,207,8,0,0.4,6,-1.0,comp,right,0.834972458935,2
1,208,8,0,0.0,6,0.0,comp,right,0.987824897766,2
1,209,8,0,0.2,6,2.0,comp,right,0.823214372638,2
1,210,8,0,0.6,6,-1.5,comp,right,2.82245469839,2
1,211,8,0,0.0,6,-2.0,comp,left,1.04666630638,2
1,212,8,0,0.6,6,0.5,comp,left,0.952629595944,2
1,213,8,0,0.8,6,1.0,comp,left,1.12897521017,2
1,214,8,0,0.0,6,1.0,comp,right,2.30505405684,2
1,215,8,0,0.6,6,-1.0,comp,right,0.976120854895,2
1,216,8,0,0.4,6,0.5,comp,right,1.24661969872,2
1,217,8,0,0.4,6,1.5,comp,right,1.47005783413,2
1,218,8,0,0.4,6,-2.0,comp,right,1.72879360892,2
1,219,8,0,0.8,6,-1.5,comp,right,1.44634043602,2
1,220,8,0,0.2,6,1.0,comp,right,2.0345559796,2
1,221,8,0,0.2,6,1.5,comp,right,1.23481753445,2
1,222,8,0,0.6,6,-0.5,comp,right,1.11722632275,2
1,223,8,0,0.6,6,1.0,comp,right,1.08196356247,2
1,224,8,0,0.2,6,-1.5,comp,right,1.01137863246,2
1,225,8,0,0.4,6,-0.5,comp,right,1.18778748898,2
1,226,8,0,0.4,6,1.5,comp,right,0.929058613354,2
1,227,8,0,0.2,6,-0.5,comp,left,1.04664714204,2
1,228,8,0,0.0,6,0.0,comp,left,0.976110889445,2
1,229,8,0,0.8,6,0.5,comp,left,1.62292023842,2
1,230,8,0,0.8,6,2.0,comp,left,1.04665097491,2
1,231,8,0,0.2,6,-2.0,comp,left,0.811469318091,2
1,232,8,0,0.0,6,0.5,comp,right,0.858498596979,2
1,233,8,0,0.0,6,2.0,comp,right,0.834990856696,2
1,234,8,0,0.6,6,-1.0,comp,left,1.02314246805,2
1,235,8,0,0.4,6,1.0,comp,right,1.03488407302,2
1,236,8,0,0.4,6,2.0,comp,right,0.83496824278,2
1,237,8,0,0.4,6,0.5,comp,right,0.79969206746,2
1,238,8,0,0.2,6,0.5,comp,right,0.71730267346,2
1,239,8,0,0.6,6,-0.5,comp,right,0.670303674222,2
1,240,8,0,0.6,6,2.0,comp,right,0.811457052918,2
1,241,8,0,0.0,6,-0.5,comp,left,0.587976372677,2
1,242,8,0,0.0,6,1.0,comp,left,0.811447854037,2
1,243,8,0,0.4,6,-0.5,comp,left,1.14077047527,2
1,244,8,0,0.6,6,0.0,comp,left,0.952610814893,2
1,245,8,0,0.8,6,-0.5,comp,left,0.95258820098,2
1,246,8,0,0.0,6,-1.5,comp,left,0.846766574181,2
1,247,8,0,0.6,6,0.5,comp,right,0.870225253766,2
1,248,8,0,0.8,6,1.5,comp,right,0.79969245075,2
1,249,8,0,0.8,6,-1.5,comp,left,0.787970776688,2
1,250,8,0,0.2,6,-1.0,comp,right,0.940799068459,2
1,251,8,0,0.4,6,-1.5,comp,left,1.01135486868,2
1,252,8,0,0.6,6,1.5,comp,right,0.811468168231,2
1,253,8,0,0.0,6,1.5,comp,right,1.42277060329,2
1,254,8,0,0.4,6,-2.0,comp,left,0.99959026651,2
1,255,8,0,0.0,6,-1.0,comp,left,1.18778020654,2
1,256,8,0,0.6,6,1.0,comp,right,0.823224338092,2
1,257,8,0,0.2,6,2.0,comp,right,0.799691300886,2
1,258,8,0,0.2,6,1.0,comp,left,0.70559786402,2
1,259,8,0,0.8,6,-2.0,comp,left,0.835049116278,2
1,260,8,0,0.4,6,-1.0,comp,right,1.12896716114,2
1,261,8,0,0.8,6,0.0,comp,right,0.834964026628,2
1,262,8,0,0.6,6,-2.0,comp,left,1.02313940176,2
1,263,8,0,0.8,6,-1.0,comp,right,1.14074862793,2
1,264,8,0,0.8,6,1.0,comp,right,0.764415508853,2
1,265,8,0,0.2,6,-1.5,comp,left,0.776172828577,2
1,266,8,0,0.6,6,-1.5,comp,right,1.01136061798,2
1,267,8,0,0.4,6,0.0,comp,right,0.787933981162,2
1,268,8,0,0.2,6,0.0,comp,right,0.764378713327,2
1,269,8,0,0.2,6,1.5,comp,right,0.799674436272,2
1,270,8,0,0.0,6,-2.0,comp,left,0.764428923889,2
2,1,8,180,0.0,6,-1.5,comp,right,0.84677040705,2
2,2,8,180,0.2,6,-2.0,comp,right,0.881998671528,2
2,3,8,180,0.4,6,0.5,comp,left,0.858499746839,2
2,4,8,180,0.2,6,0.5,comp,left,0.999595632526,2
2,5,8,180,0.6,6,-1.0,comp,right,0.79971161508,2
2,6,8,180,0.0,6,0.0,comp,left,0.882074179011,2
2,7,8,180,0.6,6,-2.0,comp,right,0.764404776826,2
2,8,8,180,0.4,6,0.0,comp,left,0.729153515142,2
2,9,8,180,0.2,6,0.0,comp,left,0.846754692291,2
2,10,8,180,0.4,6,2.0,comp,left,0.846737061103,2
2,11,8,180,0.0,6,-1.0,comp,right,0.858526576911,2
2,12,8,180,0.0,6,2.0,comp,left,0.846743193688,2
2,13,8,180,0.2,6,-0.5,comp,right,0.787937430745,2
2,14,8,180,0.8,6,0.5,comp,left,0.834994306275,2
2,15,8,180,0.8,6,-1.5,comp,right,0.76442509102,2
2,16,8,180,0.8,6,1.0,comp,left,0.764396727802,2
2,17,8,180,0.2,6,1.0,comp,left,0.717372814932,2
2,18,8,180,0.6,6,0.0,comp,right,0.776199275359,2
2,19,8,180,0.8,6,2.0,comp,left,0.799693600606,2
2,20,8,180,0.8,6,-1.0,comp,right,0.787929765011,2
2,21,8,180,0.8,6,0.0,comp,left,0.787933214593,2
2,22,8,180,0.8,6,-0.5,comp,right,0.740903169131,2
2,23,8,180,0.4,6,1.5,comp,left,0.823216289071,2
2,24,8,180,0.4,6,-0.5,comp,right,0.646831962891,2
2,25,8,180,0.6,6,-1.5,comp,right,0.717394662272,2
2,26,8,180,0.8,6,-2.0,comp,right,0.776196592349,2
2,27,8,180,0.6,6,1.5,comp,left,0.776189693188,2
2,28,8,180,0.2,6,-1.5,comp,right,0.929031783286,2
2,29,8,180,0.2,6,2.0,comp,left,0.764380629764,2
2,30,8,180,0.6,6,2.0,comp,left,0.76440439354,2
2,31,8,180,0.0,6,0.5,comp,right,1.1877871057,2
2,32,8,180,0.4,6,-2.0,comp,right,0.823205940331,2
2,33,8,180,0.6,6,1.0,comp,left,0.7526562727,2
2,34,8,180,0.0,6,1.0,comp,left,0.729105221017,2
2,35,8,180,0.4,6,-1.5,comp,right,0.823375736341,2
2,36,8,180,0.2,6,1.5,comp,left,0.846706398166,2
2,37,8,180,0.8,6,1.5,comp,left,0.823213989352,2
2,38,8,180,0.0,6,-0.5,comp,right,0.882094493205,2
2,39,8,180,0.2,6,-1.0,comp,right,0.85850779586,2
2,40,8,180,0.6,6,0.5,comp,right,0.940843146433,2
2,41,8,180,0.0,6,1.5,comp,left,0.905570803981,2
2,42,8,180,0.0,6,-2.0,comp,right,0.905536308172,2
2,43,8,180,0.6,6,-0.5,comp,right,1.88141377601,2
2,44,8,180,0.4,6,1.0,comp,left,0.823232770403,2
2,45,8,180,0.4,6,-1.0,comp,right,0.823234686835,2
2,46,8,180,0.6,6,0.0,comp,left,0.929054397198,2
2,47,8,180,0.8,6,1.0,comp,left,0.882030484325,2
2,48,8,180,0.6,6,-1.5,comp,right,0.799721197251,2
2,49,8,180,0.6,6,-2.0,comp,right,1.07019359428,2
2,50,8,180,0.2,6,-1.0,comp,right,0.82323047068,2
2,51,8,180,0.8,6,2.0,comp,left,0.929057463491,2
2,52,8,180,0.0,6,0.5,comp,left,1.02311180511,2
2,53,8,180,0.4,6,-1.0,comp,left,1.09369903485,2
2,54,8,180,0.8,6,-2.0,comp,right,0.858469467188,2
2,55,8,180,0.6,6,-1.0,comp,right,0.870273547891,2
2,56,8,180,0.2,6,1.0,comp,right,1.11720447541,2
2,57,8,180,0.4,6,-1.5,comp,right,0.964313707904,2
2,58,8,180,0.4,6,2.0,comp,left,0.776167079275,2
2,59,8,180,0.6,6,1.0,comp,left,1.42298716028,2
2,60,8,180,0.6,6,1.5,comp,left,0.776200808505,2
2,61,8,180,0.4,6,0.0,comp,right,0.811467401658,2
2,62,8,180,0.6,6,0.5,comp,left,0.752647073816,2
2,63,8,180,0.8,6,0.5,comp,left,0.83495674418,2
2,64,8,180,0.0,6,-1.0,comp,right,0.787937047458,2
2,65,8,180,0.0,6,-2.0,comp,right,0.870280063766,2
2,66,8,180,0.2,6,2.0,comp,left,0.823240819424,2
2,67,8,180,0.4,6,0.5,comp,left,1.48182588588,2
2,68,8,180,0.2,6,-1.5,comp,right,1.42298716028,2
2,69,8,180,0.6,6,-0.5,comp,left,1.91691685707,2
2,70,8,180,0.2,6,0.5,comp,left,0.917274463562,2
2,71,8,180,0.2,6,1.5,comp,left,0.76439136179,2
2,72,8,180,0.0,6,-0.5,comp,right,0.85853922537,2
2,73,8,180,0.0,6,0.0,comp,right,1.43476019476,2
2,74,8,180,0.0,6,2.0,comp,left,0.787935897599,2
2,75,8,180,0.4,6,1.5,comp,left,0.740904702277,2
2,76,8,180,0.8,6,-1.0,comp,right,0.811458202774,2
2,77,8,180,0.0,6,-1.5,comp,left,2.90479771469,2
2,78,8,180,0.4,6,-0.5,comp,left,0.987824514479,2
2,79,8,180,0.0,6,1.0,comp,left,0.893749092091,2
2,80,8,180,0.2,6,0.0,comp,right,0.929237224958,2
2,81,8,180,0.6,6,2.0,comp,left,0.882015919433,2
2,82,8,180,0.8,6,0.0,comp,left,0.834975908514,2
2,83,8,180,0.8,6,-1.5,comp,right,0.987814549026,2
2,84,8,180,0.8,6,-0.5,comp,right,0.917277529858,2
2,85,8,180,0.0,6,1.5,comp,left,0.905557772232,2
2,86,8,180,0.8,6,1.5,comp,left,0.905507178384,2
2,87,8,180,0.2,6,-2.0,comp,right,0.83497284221800006,2
2,88,8,180,0.4,6,-2.0,comp,right,0.834960960332,2
2,89,8,180,0.2,6,-0.5,comp,left,0.940809033913,2
2,90,8,180,0.4,6,1.0,comp,left,0.834954827747,2
2,91,8,180,0.8,6,-1.0,comp,right,1.07019091128,2
2,92,8,180,0.6,6,1.0,comp,left,0.870258599705,2
2,93,8,180,0.6,6,-0.5,comp,left,0.929025267407,2
2,94,8,180,0.8,6,1.5,comp,left,0.811432139282,2
2,95,8,180,0.8,6,1.0,comp,left,0.823200191029,2
2,96,8,180,0.0,6,-2.0,comp,right,0.799668686974,2
2,97,8,180,0.4,6,-1.5,comp,right,0.823240052847,2
2,98,8,180,0.2,6,0.0,comp,left,0.846715213764,2
2,99,8,180,0.2,6,0.5,comp,right,0.952577085664,2
2,100,8,180,0.4,6,0.5,comp,left,0.835036467815,2
2,101,8,180,0.6,6,1.5,comp,left,0.540943260916,2
2,102,8,180,0.0,6,0.5,comp,right,1.09371053345,2
2,103,8,180,0.8,6,0.5,comp,left,0.823205557044,2
2,104,8,180,0.2,6,1.0,comp,left,0.811430606132,2
2,105,8,180,0.6,6,0.0,comp,right,0.870258982995,2
2,106,8,180,0.8,6,0.0,comp,right,1.24661471599,2
2,107,8,180,0.0,6,1.5,comp,left,0.717367448917,2
2,108,8,180,0.2,6,-2.0,comp,right,0.799669453543,2
2,109,8,180,0.6,6,-2.0,comp,right,0.823185242847,2
2,110,8,180,0.8,6,-0.5,comp,right,0.929071261817,2
2,111,8,180,0.8,6,2.0,comp,left,0.987932984619,2
2,112,8,180,0.0,6,-1.0,comp,right,0.91726986412,2
2,113,8,180,0.6,6,2.0,comp,left,0.834954061171,2
2,114,8,180,0.6,6,-1.5,comp,right,0.764414358993,2
2,115,8,180,0.2,6,-1.5,comp,right,1.02315320008,2
2,116,8,180,0.6,6,-1.0,comp,right,0.917295161042,2
2,117,8,180,0.2,6,1.5,comp,left,1.01138859791,2
2,118,8,180,0.4,6,0.0,comp,left,1.04663870974,2
2,119,8,180,0.0,6,0.0,comp,right,1.21129829556,2
2,120,8,180,0.4,6,1.0,comp,left,0.952574402658,2
2,121,8,180,0.0,6,2.0,comp,left,0.705584448988,2
2,122,8,180,0.8,6,-2.0,comp,right,0.693843227305,2
2,123,8,180,0.4,6,-2.0,comp,right,0.834950611592,2
2,124,8,180,0.0,6,-1.5,comp,left,1.21130749445,2
2,125,8,180,0.4,6,1.5,comp,left,0.811426773267,2
2,126,8,180,0.4,6,2.0,comp,left,0.764405543399,2
2,127,8,180,0.0,6,1.0,comp,left,0.823235453405,2
2,128,8,180,0.8,6,-1.5,comp,right,0.846743576978,2
2,129,8,180,0.2,6,2.0,comp,left,0.705626227238,2
2,130,8,180,0.0,6,-0.5,comp,left,0.740881321784,2
2,131,8,180,0.2,6,-0.5,comp,left,0.635050112822,2
2,132,8,180,0.2,6,-1.0,comp,right,0.705594414438,2
2,133,8,180,0.4,6,-1.0,comp,left,0.670271094856,2
2,134,8,180,0.4,6,-0.5,comp,left,0.799693983892,2
2,135,8,180,0.6,6,0.5,comp,left,0.764384079343,2
2,136,8,180,0.4,6,-2.0,comp,right,0.776190076474,2
2,137,8,180,0.6,6,2.0,comp,left,0.752656272696,2
2,138,8,180,0.8,6,-2.0,comp,right,0.85852619362,2
2,139,8,180,0.4,6,2.0,comp,left,0.741051501085,2
2,140,8,180,0.8,6,-1.0,comp,right,0.799693983892,2
2,141,8,180,0.4,6,1.0,comp,left,0.599748640579,2
2,142,8,180,0.2,6,2.0,comp,left,0.799670603403,2
2,143,8,180,0.8,6,0.5,comp,left,0.776141782353,2
2,144,8,180,0.6,6,-0.5,comp,left,0.929053630625,2
2,145,8,180,0.4,6,-1.0,comp,right,0.764396344515,2
2,146,8,180,0.2,6,0.0,comp,left,0.682162948211,2
2,147,8,180,0.8,6,1.0,comp,left,0.717371665069,2
2,148,8,180,0.6,6,-1.5,comp,right,0.776146381795,2
2,149,8,180,0.2,6,0.5,comp,left,0.623281294498,2
2,150,8,180,0.2,6,1.5,comp,left,0.752682336195,2
2,151,8,180,0.6,6,0.5,comp,left,0.705599780456,2
2,152,8,180,0.2,6,-1.5,comp,right,0.705569884089,2
2,153,8,180,0.0,6,-1.5,comp,right,1.21128028109,2
2,154,8,180,0.0,6,0.0,comp,left,0.693878106395,2
2,155,8,180,0.6,6,-1.0,comp,right,0.882003654257,2
2,156,8,180,0.0,6,-2.0,comp,right,0.929088893001,2
2,157,8,180,0.6,6,-2.0,comp,left,0.870261282715,2
2,158,8,180,0.4,6,0.0,comp,left,1.04662069526,2
2,159,8,180,0.0,6,-1.0,comp,right,0.729176895627,2
2,160,8,180,0.4,6,-0.5,comp,left,1.17586113983,2
2,161,8,180,0.0,6,1.0,comp,left,0.811455903055,2
2,162,8,180,0.8,6,-1.5,comp,right,0.846738210963,2
2,163,8,180,0.8,6,1.5,comp,left,0.811455136485,2
2,164,8,180,0.0,6,-0.5,comp,left,0.870237135652,2
2,165,8,180,0.4,6,1.5,comp,right,0.858512395302,2
2,166,8,180,0.6,6,1.0,comp,right,1.24659056892,2
2,167,8,180,0.6,6,1.5,comp,right,0.823232387113,2
2,168,8,180,0.6,6,0.0,comp,right,0.858482882224,2
2,169,8,180,0.2,6,-0.5,comp,right,0.834940262848,2
2,170,8,180,0.4,6,-1.5,comp,right,0.84673629453,2
2,171,8,180,0.8,6,2.0,comp,right,0.776209240816,2
2,172,8,180,0.2,6,-2.0,comp,right,0.764415125566,2
2,173,8,180,0.0,6,0.5,comp,right,0.846704098447,2
2,174,8,180,0.0,6,2.0,comp,left,0.940786803287,2
2,175,8,180,0.2,6,1.0,comp,left,0.729114803184,2
2,176,8,180,0.2,6,-1.0,comp,right,0.776169378994,2
2,177,8,180,0.0,6,1.5,comp,left,0.729105221017,2
2,178,8,180,0.4,6,0.5,comp,right,0.89377247258,2
2,179,8,180,0.8,6,0.0,comp,right,0.858499363552,2
2,180,8,180,0.8,6,-0.5,comp,right,0.893775922159,2
2,181,8,180,0.0,6,1.5,comp,left,0.858617032573,2
2,182,8,180,0.6,6,0.5,comp,left,0.987875108327,2
2,183,8,180,0.6,6,2.0,comp,left,0.799917440047,2
2,184,8,180,0.4,6,0.5,comp,left,1.14072754716,2
2,185,8,180,0.2,6,-1.0,comp,left,0.976152284409,2
2,186,8,180,0.6,6,-1.5,comp,left,0.881990239221,2
2,187,8,180,0.6,6,-1.0,comp,left,0.729131284512,2
2,188,8,180,0.8,6,-2.0,comp,right,0.799707015642,2
2,189,8,180,0.0,6,1.0,comp,left,0.764437356196,2
2,190,8,180,0.6,6,1.0,comp,left,0.976120088326,2
2,191,8,180,0.0,6,-2.0,comp,left,1.14073827919,2
2,192,8,180,0.8,6,2.0,comp,left,0.752655122837,2
2,193,8,180,0.4,6,-2.0,comp,right,0.764389445358,2
2,194,8,180,0.4,6,1.0,comp,right,1.16424908577,2
2,195,8,180,0.6,6,-2.0,comp,right,1.18774686059,2
2,196,8,180,0.0,6,-0.5,comp,right,0.952613881189,2
2,197,8,180,0.0,6,0.5,comp,left,0.776187776755,2
2,198,8,180,0.8,6,1.0,comp,left,0.952557154757,2
2,199,8,180,0.4,6,-1.5,comp,left,0.96436890119,2
2,200,8,180,0.8,6,-0.5,comp,left,0.917275996708,2
2,201,8,180,0.8,6,1.5,comp,left,0.858518911173,2
2,202,8,180,0.2,6,1.0,comp,left,0.799687851308,2
2,203,8,180,0.0,6,2.0,comp,left,0.834955977603,2
2,204,8,180,0.0,6,-1.0,comp,left,1.18778978871,2
2,205,8,180,0.2,6,0.0,comp,left,0.82324081942,2
2,206,8,180,0.8,6,0.5,comp,left,0.881992155657,2
2,207,8,180,0.2,6,2.0,comp,left,0.823190225576,2
2,208,8,180,0.2,6,1.5,comp,left,0.940815166505,2
2,209,8,180,0.6,6,-0.5,comp,left,0.940827814964,2
2,210,8,180,0.2,6,-0.5,comp,left,0.929028333703,2
2,211,8,180,0.0,6,-1.5,comp,left,0.917298227338,2
2,212,8,180,0.4,6,1.5,comp,left,0.893748708804,2
2,213,8,180,0.8,6,-1.5,comp,right,0.952574019371,2
2,214,8,180,0.6,6,0.0,comp,left,0.858404691735,2
2,215,8,180,0.8,6,-1.0,comp,right,0.870362470403,2
2,216,8,180,0.4,6,-0.5,comp,right,0.92903791587,2
2,217,8,180,0.2,6,-2.0,comp,right,0.846761974739,2
2,218,8,180,0.2,6,-1.5,comp,right,0.823226637815,2
2,219,8,180,0.4,6,-1.0,comp,right,0.787930531584,2
2,220,8,180,0.4,6,0.0,comp,left,1.09372778135,2
2,221,8,180,0.2,6,0.5,comp,left,0.905550873071,2
2,222,8,180,0.4,6,2.0,comp,left,0.787961194521,2
2,223,8,180,0.6,6,1.5,comp,left,0.82318600942,2
2,224,8,180,0.8,6,0.0,comp,left,0.823223571519,2
2,225,8,180,0.0,6,0.0,comp,left,0.764439655915,2
2,226,8,180,0.6,6,-1.5,comp,right,1.42300134189,2
2,227,8,180,0.8,6,-1.5,comp,right,0.882021668731,2
2,228,8,180,0.4,6,1.5,comp,left,0.740874805913,2
2,229,8,180,0.4,6,0.0,comp,left,0.905565437966,2
2,230,8,180,0.4,6,-2.0,comp,right,0.893767489852,2
2,231,8,180,0.6,6,-2.0,comp,right,0.752625226476,2
2,232,8,180,0.0,6,-0.5,comp,right,0.823238902987,2
2,233,8,180,0.6,6,1.5,comp,left,0.776174745009,2
2,234,8,180,0.2,6,1.0,comp,left,0.82321973865,2
2,235,8,180,0.8,6,0.0,comp,left,1.10546593673,2
2,236,8,180,0.4,6,2.0,comp,left,0.905548573348,2
2,237,8,180,0.6,6,0.0,comp,right,0.90553247531,2
2,238,8,180,0.2,6,1.5,comp,left,0.917272547129,2
2,239,8,180,0.8,6,0.5,comp,left,0.823248868444,2
2,240,8,180,0.2,6,-1.5,comp,right,0.870287729496,2
2,241,8,180,0.4,6,0.5,comp,right,0.952593566992,2
2,242,8,180,0.8,6,1.5,comp,left,0.846769257187,2
2,243,8,180,0.0,6,-1.0,comp,right,0.999598698818,2
2,244,8,180,0.2,6,-1.0,comp,left,0.893779371741,2
2,245,8,180,0.0,6,0.0,comp,left,0.952592417132,2
2,246,8,180,0.2,6,-2.0,comp,right,0.905515993982,2
2,247,8,180,0.0,6,1.0,comp,left,0.893768256425,2
2,248,8,180,0.8,6,2.0,comp,left,0.846709081176,2
2,249,8,180,0.6,6,2.0,comp,left,0.952582834965,2
2,250,8,180,0.0,6,1.5,comp,left,0.834952528025,2
2,251,8,180,0.0,6,0.5,comp,left,0.92904941447,2
2,252,8,180,0.8,6,-0.5,comp,left,0.940806350907,2
2,253,8,180,0.2,6,0.5,comp,left,0.882013236424,2
2,254,8,180,0.4,6,-1.0,comp,right,0.976092491681,2
2,255,8,180,0.8,6,-1.0,comp,right,0.976103223711,2
2,256,8,180,0.8,6,-2.0,comp,right,0.799691684173,2
2,257,8,180,0.4,6,-0.5,comp,left,0.823247335295,2
2,258,8,180,0.2,6,-0.5,comp,left,0.940828581537,2
2,259,8,180,0.2,6,2.0,comp,left,1.04660268078,2
2,260,8,180,0.6,6,-0.5,comp,left,1.12900548982,2
2,261,8,180,0.4,6,1.0,comp,left,0.952585517971,2
2,262,8,180,0.6,6,-1.0,comp,left,0.870254383553,2
2,263,8,180,0.0,6,-2.0,comp,right,1.25837586858,2
2,264,8,180,0.0,6,-1.5,comp,right,1.05841289407,2
2,265,8,180,0.2,6,0.0,comp,right,0.95259854972,2
2,266,8,180,0.8,6,1.0,comp,left,0.964343604268,2
2,267,8,180,0.6,6,0.5,comp,left,1.09368140366,2
2,268,8,180,0.4,6,-1.5,comp,right,1.02311257169,2
2,269,8,180,0.0,6,2.0,comp,left,1.02308689148,2
2,270,8,180,0.6,6,1.0,comp,right,0.94081746622,2
3,1,8,0,0.2,6,-1.0,comp,left,0.940837780417,2
3,2,8,0,0.6,6,2.0,comp,right,0.670338936601,2
3,3,8,180,0.8,6,-1.0,comp,right,1.21130557801,2
3,4,8,180,0.6,6,2.0,comp,left,0.682084757726,2
3,5,8,180,0.8,6,-1.5,comp,right,0.693862008353,2
3,6,8,180,0.0,6,0.5,comp,left,0.787933597876,2
3,7,8,0,0.6,6,1.5,comp,right,0.917275613421,2
3,8,8,180,0.0,6,1.5,comp,right,1.18779017199,2
3,9,8,0,0.8,6,-1.0,comp,left,0.905506411811,2
3,10,8,180,0.2,6,1.5,comp,right,0.917323140973,2
3,11,8,180,0.4,6,-1.0,comp,left,0.940831647829,2
3,12,8,180,0.0,6,-1.0,comp,right,1.37596784685,2
3,13,8,0,0.4,6,-2.0,comp,left,1.39943265902,2
3,14,8,0,0.2,6,-0.5,comp,left,2.03455827932,2
3,15,8,180,0.2,6,-1.0,comp,right,1.95221909588,2
3,16,8,180,0.2,6,1.0,comp,left,0.823206706904,2
3,17,8,180,0.6,6,0.0,comp,left,1.39946907125,2
3,18,8,0,0.8,6,1.0,comp,left,0.79978635599,2
3,19,8,0,0.4,6,1.0,comp,right,1.44651636462,2
3,20,8,0,0.4,6,-1.5,comp,left,1.04663334372,2
3,21,8,180,0.2,6,0.5,comp,right,0.976093258254,2
3,22,8,180,0.2,6,-1.5,comp,right,2.79895462384,2
3,23,8,180,0.6,6,-2.0,comp,right,0.976080609795,2
3,24,8,0,0.0,6,-2.0,comp,left,0.858521977465,2
3,25,8,0,0.2,6,-1.5,comp,left,1.25835363795,2
3,26,8,0,0.6,6,-0.5,comp,right,0.976098240983,2
3,27,8,0,0.0,6,-1.5,comp,left,0.96437043434,2
3,28,8,0,0.6,6,0.0,comp,right,0.940812483492,2
3,29,8,180,0.2,6,-0.5,comp,right,1.39947405398,2
3,30,8,0,0.0,6,-0.5,comp,right,2.17565454829,2
3,31,8,0,0.2,6,2.0,comp,right,0.905530558874,2
3,32,8,180,0.8,6,1.0,comp,right,4.53946607395,2
3,33,8,180,0.4,6,-1.5,comp,right,0.952606982028,2
3,34,8,180,0.4,6,1.5,comp,left,0.976082142941,2
3,35,8,180,0.0,6,0.0,comp,right,1.89320482497,2
3,36,8,0,0.8,6,2.0,comp,right,1.08196356247,2
3,37,8,0,0.0,6,1.5,comp,right,1.21127721479,2
3,38,8,0,0.8,6,-1.5,comp,left,0.882020902158,2
3,39,8,0,0.6,6,1.0,comp,right,1.32867486671,2
3,40,8,180,0.2,6,-2.0,comp,right,1.3994706044,2
3,41,8,0,0.2,6,1.0,comp,right,0.999645843083,2
3,42,8,0,0.4,6,-0.5,comp,left,1.58753482639,2
3,43,8,180,0.8,6,-0.5,comp,right,4.05731247794,2
3,44,8,0,0.0,6,-1.0,comp,right,1.24659018564,2
3,45,8,180,0.2,6,2.0,comp,left,1.12895029653,2
3,46,8,0,0.6,6,-1.0,comp,right,1.17605278318,2
3,47,8,0,0.2,6,0.5,comp,right,1.10545520471,2
3,48,8,180,0.8,6,1.5,comp,left,1.3524041467,2
3,49,8,0,0.4,6,1.5,comp,right,1.24658405305,2
3,50,8,0,0.0,6,0.5,comp,right,1.31715978418,2
3,51,8,0,0.4,6,0.0,comp,right,1.32889180698,2
3,52,8,0,0.0,6,2.0,comp,right,0.858511245442,2
3,53,8,0,0.8,6,-0.5,comp,left,0.77619314277,2
3,54,8,0,0.2,6,1.5,comp,right,0.776165546129,2
3,55,8,180,0.0,6,-1.5,comp,left,0.917292478036,2
3,56,8,0,0.8,6,0.5,comp,right,1.55232840925,2
3,57,8,180,0.2,6,0.0,comp,left,1.07021467505,2
3,58,8,180,0.4,6,0.0,comp,left,1.66995066717,2
3,59,8,180,0.4,6,0.5,comp,left,1.11719565982,2
3,60,8,180,0.8,6,0.0,comp,right,1.38773091587,2
3,61,8,0,0.0,6,0.0,comp,right,1.34066215845,2
3,62,8,180,0.4,6,1.0,comp,left,0.752633275493,2
3,63,8,180,0.4,6,2.0,comp,left,0.776141782353,2
3,64,8,0,0.2,6,0.0,comp,left,1.36418178062,2
3,65,8,0,0.0,6,1.0,comp,right,0.881989089361,2
3,66,8,180,0.6,6,1.5,comp,left,0.9760947914,2
3,67,8,180,0.6,6,0.5,comp,left,0.882041982928,2
3,68,8,180,0.8,6,2.0,comp,left,0.834950228305,2
3,69,8,0,0.8,6,0.0,comp,left,3.03404927457,2
3,70,8,180,0.0,6,-0.5,comp,right,1.18779247172,2
3,71,8,180,0.6,6,-1.5,comp,right,0.882016686006,2
3,72,8,180,0.4,6,-0.5,comp,right,1.35242714391,2
3,73,8,0,0.8,6,-2.0,comp,left,0.917267181114,2
3,74,8,180,0.8,6,0.5,comp,right,0.905511011249,2
3,75,8,180,0.6,6,-1.0,comp,left,1.04669007015,2
3,76,8,0,0.6,6,-2.0,comp,right,1.29366545893,2
3,77,8,0,0.6,6,0.5,comp,right,0.776181260881,2
3,78,8,180,0.0,6,-2.0,comp,right,0.823164545367,2
3,79,8,180,0.6,6,-0.5,comp,left,0.976104756857,2
3,80,8,180,0.0,6,2.0,comp,right,0.811492315293,2
3,81,8,0,0.4,6,2.0,comp,right,0.882016302716,2
3,82,8,0,0.2,6,-2.0,comp,left,0.929046731468,2
3,83,8,180,0.6,6,1.0,comp,left,1.09371053345,2
3,84,8,0,0.4,6,0.5,comp,right,1.69349405311,2
3,85,8,180,0.4,6,-2.0,comp,right,1.12900817282,2
3,86,8,180,0.8,6,-2.0,comp,right,0.811431755992,2
3,87,8,0,0.4,6,-1.0,comp,left,1.63470323835,2
3,88,8,180,0.0,6,1.0,comp,left,0.999623612453,2
3,89,8,0,0.6,6,-1.5,comp,left,0.976064128467,2
3,90,8,0,0.8,6,1.5,comp,right,0.764418958432,2
3,91,8,180,0.0,6,-1.5,comp,right,1.11724548709,2
3,92,8,180,0.8,6,-2.0,comp,right,0.670346219049,2
3,93,8,0,0.4,6,-1.0,comp,left,0.846740510686,2
3,94,8,180,0.4,6,-1.5,comp,right,0.65876521121,2
3,95,8,0,0.4,6,2.0,comp,right,1.49353491148,2
3,96,8,0,0.2,6,1.0,comp,left,0.623306208134,2
3,97,8,180,0.6,6,0.0,comp,right,1.19954404213,2
3,98,8,0,0.4,6,0.5,comp,right,0.858490931245,2
3,99,8,0,0.6,6,1.0,comp,right,0.717386613254,2
3,100,8,180,0.2,6,1.5,comp,left,2.54022229862,2
3,101,8,180,0.6,6,1.0,comp,left,0.740868290039,2
3,102,8,180,0.4,6,0.5,comp,left,0.69385970863,2
3,103,8,0,0.0,6,-0.5,comp,right,0.929053247339,2
3,104,8,0,0.0,6,-2.0,comp,left,0.72912706836,2
3,105,8,180,0.6,6,-1.5,comp,right,0.752676203607,2
3,106,8,0,0.2,6,-2.0,comp,left,0.787922099276,2
3,107,8,0,0.6,6,-2.0,comp,left,0.834981274529,2
3,108,8,180,0.2,6,0.5,comp,left,1.23484053165,2
3,109,8,180,0.4,6,-0.5,comp,right,0.870256683276,2
3,110,8,0,0.8,6,-1.0,comp,left,1.0113571684,2
3,111,8,180,0.0,6,2.0,comp,left,0.882042749501,2
3,112,8,180,0.0,6,-0.5,comp,left,1.17602710297,2
3,113,8,0,0.0,6,2.0,comp,right,0.78793091487,2
3,114,8,180,0.4,6,1.0,comp,right,1.44650984874,2
3,115,8,0,0.4,6,-1.5,comp,left,0.89377247258,2
3,116,8,0,0.2,6,-1.5,comp,left,0.893752158383,2
3,117,8,0,0.8,6,1.5,comp,right,0.976102457134,2
3,118,8,180,0.8,6,0.5,comp,right,1.19960728444,2
3,119,8,180,0.4,6,-1.0,comp,right,0.97610514014,2
3,120,8,0,0.4,6,0.0,comp,right,3.12824849857,2
3,121,8,180,0.8,6,0.0,comp,right,0.940790636152,2
3,122,8,0,0.8,6,0.0,comp,right,0.929036382724,2
3,123,8,180,0.0,6,1.5,comp,right,0.858507412573,2
3,124,8,180,0.2,6,-1.0,comp,left,2.4696408182,2
3,125,8,0,0.8,6,2.0,comp,right,0.846715980337,2
3,126,8,180,0.0,6,-2.0,comp,right,1.12898440905,2
3,127,8,0,0.0,6,-1.5,comp,left,0.834973992081,2
3,128,8,180,0.6,6,1.5,comp,left,1.22310735899,2
3,129,8,0,0.0,6,-1.0,comp,left,0.776205024657,2
3,130,8,0,0.8,6,0.5,comp,right,1.25838008473,2
3,131,8,0,0.8,6,-1.5,comp,left,0.858530793063,2
3,132,8,180,0.8,6,1.0,comp,left,1.04666132365,2
3,133,8,180,0.0,6,1.0,comp,right,0.929062446219,2
3,134,8,180,0.8,6,1.5,comp,left,0.776145998505,2
3,135,8,180,0.2,6,0.0,comp,right,0.858466784182,2
3,136,8,0,0.6,6,0.0,comp,right,2.23448637473,2
3,137,8,0,0.4,6,1.5,comp,left,1.24659210207,2
3,138,8,180,0.6,6,-0.5,comp,left,0.905561988384,2
3,139,8,180,0.4,6,1.5,comp,right,1.7169266692,2
3,140,8,180,0.2,6,-2.0,comp,right,0.823173744247,2
3,141,8,0,0.2,6,-0.5,comp,right,1.63467219213,2
3,142,8,0,0.4,6,-0.5,comp,left,3.05765513625,2
3,143,8,180,0.8,6,-1.0,comp,right,0.905555855799,2
3,144,8,0,0.6,6,-1.0,comp,left,0.88199253894,2
3,145,8,180,0.4,6,-2.0,comp,right,0.893778221882,2
3,146,8,0,0.6,6,1.5,comp,right,1.94041194889,2
3,147,8,180,0.6,6,-1.0,comp,right,0.811452453476,2
3,148,8,0,0.2,6,2.0,comp,right,2.17566949647,2
3,149,8,0,0.8,6,1.0,comp,left,0.964274229373,2
3,150,8,180,0.2,6,1.0,comp,left,0.811434055715,2
3,151,8,0,0.6,6,2.0,comp,right,0.929065512515,2
3,152,8,180,0.0,6,-1.0,comp,right,0.882036233626,2
3,153,8,0,0.8,6,-0.5,comp,left,2.78720228684,2
3,154,8,0,0.8,6,-2.0,comp,right,0.929025650694,2
3,155,8,0,0.4,6,-2.0,comp,left,1.18776027563,2
3,156,8,180,0.0,6,0.5,comp,right,1.07019666057,2
3,157,8,180,0.8,6,2.0,comp,right,1.15251591311,2
3,158,8,180,0.4,6,2.0,comp,left,0.74088438808,2
3,159,8,180,0.6,6,2.0,comp,left,0.870229469918,2
3,160,8,0,0.6,6,0.5,comp,right,2.43437959105,2
3,161,8,0,0.6,6,-1.5,comp,left,0.881993688799,2
3,162,8,0,0.2,6,-1.0,comp,left,0.858487481662,2
3,163,8,0,0.0,6,0.0,comp,right,1.64641762996,2
3,164,8,0,0.2,6,0.5,comp,right,1.12898977506,2
3,165,8,180,0.2,6,-1.5,comp,right,1.223112725,2
3,166,8,0,0.4,6,1.0,comp,left,1.11718914394,2
3,167,8,180,0.2,6,2.0,comp,left,1.16429048073,2
3,168,8,0,0.0,6,1.5,comp,right,1.05839794589,2
3,169,8,180,0.0,6,0.0,comp,left,1.04660421393,2
3,170,8,0,0.6,6,-0.5,comp,left,0.870228703345,2
3,171,8,0,0.2,6,0.0,comp,left,1.27011938998,2
3,172,8,180,0.6,6,0.5,comp,right,1.98749488791,2
3,173,8,180,0.2,6,-0.5,comp,right,1.08195857974,2
3,174,8,180,0.8,6,-0.5,comp,right,0.823249635014,2
3,175,8,0,0.0,6,1.0,comp,right,0.917238434613,2
3,176,8,0,0.2,6,1.5,comp,right,1.09378910722,2
3,177,8,180,0.6,6,-2.0,comp,right,0.952603149159,2
3,178,8,180,0.8,6,-1.5,comp,right,1.09368945268,2
3,179,8,180,0.4,6,0.0,comp,right,0.917294777759,2
3,180,8,0,0.0,6,0.5,comp,right,1.08196969505,2
3,181,8,180,0.0,6,2.0,comp,left,0.752594946825,2
3,182,8,180,0.2,6,-2.0,comp,right,0.84670371516,2
3,183,8,0,0.2,6,1.0,comp,left,0.976105140144,2
3,184,8,0,0.2,6,-2.0,comp,left,1.2818678941,2
3,185,8,0,0.6,6,2.0,comp,right,0.92901721839,2
3,186,8,0,0.4,6,0.0,comp,right,1.71698416221,2
3,187,8,0,0.2,6,-1.0,comp,left,0.670346219049,2
3,188,8,180,0.6,6,1.5,comp,left,0.976087892239,2
3,189,8,0,0.8,6,-2.0,comp,right,0.811459735924,2
3,190,8,180,0.2,6,-1.0,comp,right,0.729121319058,2
3,191,8,0,0.8,6,2.0,comp,left,0.658564368976,2
3,192,8,180,0.4,6,-2.0,comp,right,0.776215756687,2
3,193,8,180,0.2,6,1.0,comp,left,0.729128984793,2
3,194,8,180,0.2,6,-1.5,comp,left,1.02315933267,2
3,195,8,180,0.4,6,0.0,comp,left,0.834972458935,2
3,196,8,180,0.6,6,0.5,comp,right,0.893724561738,2
3,197,8,0,0.6,6,-1.0,comp,right,2.29323847754,2
3,198,8,180,0.6,6,2.0,comp,left,0.646812415267,2
3,199,8,180,0.4,6,-1.0,comp,right,0.764415125566,2
3,200,8,0,0.8,6,-1.5,comp,right,0.799705482495,2
3,201,8,180,0.8,6,-2.0,comp,right,0.846755075578,2
3,202,8,180,0.4,6,1.5,comp,left,0.717375497938,2
3,203,8,180,0.4,6,1.0,comp,left,0.752623693326,2
3,204,8,0,0.4,6,-2.0,comp,left,0.999642010214,2
3,205,8,0,0.0,6,1.0,comp,right,0.705627760384,2
3,206,8,180,0.8,6,1.5,comp,left,1.2583463555,2
3,207,8,0,0.0,6,1.5,comp,right,1.02316584854,2
3,208,8,0,0.0,6,-0.5,comp,right,0.999590649797,2
3,209,8,0,0.0,6,-1.5,comp,right,1.54056917309,2
3,210,8,180,0.2,6,1.5,comp,left,0.658597714923,2
3,211,8,0,0.6,6,1.0,comp,right,0.905557772228,2
3,212,8,180,0.2,6,2.0,comp,left,0.764605619061,2
3,213,8,0,0.6,6,1.5,comp,right,0.787945863052,2
3,214,8,180,0.6,6,-1.5,comp,right,0.999611347281,2
3,215,8,0,0.0,6,0.5,comp,right,0.776151747807,2
3,216,8,180,0.4,6,0.5,comp,right,1.18774877703,2
3,217,8,0,0.8,6,0.0,comp,right,1.08195359701,2
3,218,8,0,0.4,6,2.0,comp,right,0.705605913041,2
3,219,8,180,0.8,6,-1.0,comp,left,1.52883906673,2
3,220,8,0,0.4,6,0.5,comp,right,0.846715597047,2
3,221,8,0,0.6,6,0.5,comp,right,0.729138183673,2
3,222,8,0,0.8,6,1.0,comp,right,0.635047046526,2
3,223,8,180,0.0,6,0.5,comp,left,0.576255081902,2
3,224,8,0,0.0,6,-1.0,comp,right,0.787961577807,2
3,225,8,0,0.2,6,0.0,comp,left,0.940845829438,2
3,226,8,0,0.2,6,-0.5,comp,right,0.893780904888,2
3,227,8,180,0.0,6,-1.0,comp,left,0.929051714193,2
3,228,8,0,0.0,6,0.0,comp,right,0.705593647868,2
3,229,8,180,0.4,6,-1.5,comp,right,1.1524814173,2
3,230,8,0,0.6,6,-1.5,comp,left,1.09367910394,2
3,231,8,180,0.4,6,-0.5,comp,left,1.46999689154,2
3,232,8,180,0.8,6,0.0,comp,left,1.22304411668,2
3,233,8,0,0.4,6,-1.5,comp,right,1.29366890851,2
3,234,8,0,0.0,6,2.0,comp,right,0.776147148365,2
3,235,8,0,0.8,6,0.5,comp,right,1.29361678152,2
3,236,8,180,0.0,6,-2.0,comp,right,1.034930834,2
3,237,8,0,0.2,6,0.5,comp,right,1.08196049617,2
3,238,8,0,0.6,6,-0.5,comp,left,2.82247271286,2
3,239,8,0,0.0,6,-2.0,comp,left,0.811430606132,2
3,240,8,180,0.2,6,0.5,comp,left,0.670345069189,2
3,241,8,180,0.8,6,2.0,comp,left,1.84634265908,2
3,242,8,0,0.2,6,-1.5,comp,left,1.92872477063,2
3,243,8,180,0.0,6,1.0,comp,left,1.17599222388,2
3,244,8,0,0.4,6,-1.0,comp,right,1.12900089037,2
3,245,8,0,0.4,6,-0.5,comp,right,0.799697816761,2
3,246,8,180,0.8,6,1.0,comp,left,0.646800150098,2
3,247,8,0,0.4,6,1.5,comp,right,0.71735786675,2
3,248,8,0,0.2,6,1.5,comp,right,0.682060993946,2
3,249,8,0,0.8,6,-0.5,comp,right,1.08192676694,2
3,250,8,180,0.6,6,-0.5,comp,left,0.693909152618,2
3,251,8,180,0.6,6,-1.0,comp,left,0.776186243609,2
3,252,8,180,0.2,6,0.0,comp,left,1.07018707841,2
3,253,8,180,0.2,6,-0.5,comp,right,2.72839307431,2
3,254,8,0,0.8,6,-1.0,comp,left,1.76401612411,2
3,255,8,180,0.8,6,-1.5,comp,right,0.787942413474,2
3,256,8,180,0.0,6,-0.5,comp,right,0.917294011182,2
3,257,8,180,0.0,6,0.0,comp,right,1.47005400126,2
3,258,8,0,0.2,6,2.0,comp,right,1.4582372721,2
3,259,8,0,0.8,6,1.5,comp,right,0.929092342583,2
3,260,8,180,0.4,6,2.0,comp,left,0.740869056612,2
3,261,8,0,0.6,6,-2.0,comp,left,1.37594216663,2
3,262,8,180,0.6,6,-2.0,comp,right,1.05844738988,2
3,263,8,180,0.0,6,1.5,comp,left,0.658602314365,2
3,264,8,0,0.6,6,0.0,comp,right,1.05842247624,2
3,265,8,180,0.6,6,0.0,comp,left,0.670335487022,2
3,266,8,180,0.8,6,-0.5,comp,right,0.964339771399,2
3,267,8,180,0.6,6,1.0,comp,left,0.858513161875,2
3,268,8,0,0.4,6,1.0,comp,right,0.729157348007,2
3,269,8,180,0.8,6,0.5,comp,left,0.976129287206,2
3,270,8,180,0.0,6,-1.5,comp,left,0.987884690494,2
4,1,8,0,0.6,6,-1.5,comp,left,1.10544600583,2
4,2,8,180,0.6,6,-0.5,comp,left,0.89375139181,2
4,3,8,180,0.4,6,-0.5,comp,left,0.8584951474,2
4,4,8,0,0.0,6,-1.5,comp,left,2.31678607964,2
4,5,8,0,0.4,6,1.0,comp,right,0.658573951147,2
4,6,8,180,0.8,6,-1.0,comp,right,1.17602480325,2
4,7,8,0,0.0,6,-1.0,comp,left,0.834984340821,2
4,8,8,180,0.4,6,1.5,comp,left,0.83495636089,2
4,9,8,180,0.6,6,0.5,comp,right,0.799682868579,2
4,10,8,0,0.2,6,-1.0,comp,left,0.823212839492,2
4,11,8,180,0.0,6,2.0,comp,left,0.835008104597,2
4,12,8,180,0.2,6,0.0,comp,right,0.682090507024,2
4,13,8,0,0.8,6,2.0,comp,right,0.858489014809,2
4,14,8,180,0.6,6,-1.0,comp,right,0.882024735023,2
4,15,8,0,0.0,6,-0.5,comp,left,0.882037000199,2
4,16,8,0,0.4,6,0.5,comp,left,0.776175128296,2
4,17,8,0,0.2,6,-1.5,comp,left,1.02314591764,2
4,18,8,180,0.4,6,-1.0,comp,right,1.02311027197,2
4,19,8,180,0.2,6,0.5,comp,left,1.14091267464,2
4,20,8,180,0.4,6,2.0,comp,left,0.811495381586,2
4,21,8,180,0.4,6,1.0,comp,right,1.35243404307,2
4,22,8,0,0.0,6,1.5,comp,right,1.76404563718,2
4,23,8,180,0.0,6,-1.0,comp,right,0.964338621539,2
4,24,8,0,0.2,6,0.5,comp,right,0.846783438796,2
4,25,8,180,0.8,6,-2.0,comp,right,0.964364685035,2
4,26,8,0,0.0,6,0.5,comp,right,0.881989089357,2
4,27,8,0,0.6,6,1.0,comp,right,1.02316738169,2
4,28,8,0,0.4,6,2.0,comp,right,0.870224487193,2
4,29,8,0,0.0,6,0.0,comp,left,1.29362751355,2
4,30,8,0,0.4,6,-2.0,comp,left,0.776193909343,2
4,31,8,180,0.6,6,-1.5,comp,left,0.846761208166,2
4,32,8,0,0.4,6,-1.0,comp,left,0.799654505361,2
4,33,8,0,0.6,6,0.5,comp,right,0.787948929345,2
4,34,8,180,0.2,6,-1.0,comp,left,0.893801985654,2
4,35,8,180,0.0,6,0.0,comp,right,1.5758974754,2
4,36,8,0,0.0,6,1.0,comp,right,0.823243119139,2
4,37,8,180,0.0,6,1.0,comp,right,1.03490362064,2
4,38,8,180,0.2,6,-2.0,comp,left,0.764414358993,2
4,39,8,0,0.0,6,-2.0,comp,left,0.858506262713,2
4,40,8,180,0.2,6,-1.5,comp,right,2.305003463,2
4,41,8,0,0.6,6,-2.0,comp,left,1.05844279044,2
4,42,8,180,0.2,6,-0.5,comp,right,1.2465710213,2
4,43,8,0,0.6,6,2.0,comp,right,0.740899719549,2
4,44,8,0,0.8,6,-1.0,comp,left,0.929072411676,2
4,45,8,180,0.2,6,2.0,comp,left,0.811465101939,2
4,46,8,180,0.8,6,-0.5,comp,right,0.823178726976,2
4,47,8,0,0.8,6,0.5,comp,right,0.764437356196,2
4,48,8,180,0.4,6,-2.0,comp,right,0.870500070334,2
4,49,8,0,0.4,6,1.5,comp,right,0.917315091952,2
4,50,8,180,0.6,6,0.0,comp,left,0.87028619635,2
4,51,8,0,0.8,6,-0.5,comp,right,1.22305024927,2
4,52,8,0,0.4,6,0.0,comp,right,0.776176278156,2
4,53,8,180,0.8,6,2.0,comp,left,1.3054300611,2
4,54,8,0,0.2,6,0.0,comp,right,0.705616261781,2
4,55,8,180,0.8,6,0.0,comp,left,1.02314208477,2
4,56,8,0,0.8,6,0.0,comp,right,0.987861693291,2
4,57,8,180,0.2,6,1.5,comp,left,0.64678098576,2
4,58,8,0,0.8,6,-2.0,comp,left,0.740892053815,2
4,59,8,0,0.2,6,1.5,comp,right,0.705618178214,2
4,60,8,0,0.6,6,0.0,comp,right,0.835005421592,2
4,61,8,180,0.8,6,-1.5,comp,right,1.11718492779,2
4,62,8,0,0.6,6,-0.5,comp,right,0.893755991252,2
4,63,8,0,0.2,6,2.0,comp,left,0.682066743248,2
4,64,8,180,0.0,6,-2.0,comp,right,0.811444404455,2
4,65,8,180,0.6,6,-2.0,comp,right,0.952588584263,2
4,66,8,0,0.2,6,-0.5,comp,right,0.999598315531,2
4,67,8,180,0.8,6,0.5,comp,left,0.623287810373,2
4,68,8,180,0.6,6,1.0,comp,left,0.670345835762,2
4,69,8,180,0.4,6,0.5,comp,left,4.08082596752,2
4,70,8,0,0.4,6,-1.5,comp,left,1.61113302234,2
4,71,8,180,0.8,6,1.5,comp,left,0.92901721839,2
4,72,8,180,0.0,6,0.5,comp,right,1.0231325026,2
4,73,8,180,0.4,6,0.0,comp,left,0.752655506123,2
4,74,8,0,0.8,6,1.0,comp,right,0.752623693326,2
4,75,8,0,0.8,6,1.5,comp,right,0.776188926615,2
4,76,8,180,0.0,6,-0.5,comp,right,0.823208240054,2
4,77,8,0,0.4,6,-0.5,comp,right,1.47006626644,2
4,78,8,180,0.6,6,2.0,comp,left,0.717360166469,2
4,79,8,180,0.0,6,1.5,comp,left,0.740893970251,2
4,80,8,180,0.4,6,-1.5,comp,right,0.59976703834,2
4,81,8,180,0.6,6,1.5,comp,left,0.69388117269,2
4,82,8,180,0.0,6,-1.5,comp,right,0.693822913108,2
4,83,8,180,0.8,6,1.0,comp,left,0.658589282612,2
4,84,8,0,0.6,6,1.5,comp,right,0.705589431713,2
4,85,8,180,0.2,6,1.0,comp,right,0.787925165569,2
4,86,8,0,0.8,6,-1.5,comp,left,0.682106605065,2
4,87,8,0,0.2,6,-2.0,comp,right,0.682050261919,2
4,88,8,0,0.6,6,-1.0,comp,left,1.2230636643,2
4,89,8,0,0.0,6,2.0,comp,right,0.693894971009,2
4,90,8,0,0.2,6,1.0,comp,left,3.63394701368,2
4,91,8,180,0.2,6,-0.5,comp,left,1.02316776498,2
4,92,8,0,0.4,6,1.0,comp,right,0.882003654257,2
4,93,8,180,0.0,6,-2.0,comp,right,1.07018017925,2
4,94,8,0,0.6,6,-0.5,comp,right,2.04652564015,2
4,95,8,0,0.0,6,-1.5,comp,left,0.705616261785,2
4,96,8,0,0.0,6,-1.0,comp,right,1.04664330918,2
4,97,8,180,0.4,6,-2.0,comp,right,0.682083224576,2
4,98,8,180,0.0,6,2.0,comp,left,0.646799766808,2
4,99,8,180,0.8,6,1.0,comp,left,0.705602080176,2
4,100,8,0,0.0,6,-0.5,comp,right,0.811479283544,2
4,101,8,0,0.4,6,-1.5,comp,right,0.740870206471,2
4,102,8,180,0.0,6,0.0,comp,left,0.752648223675,2
4,103,8,180,0.0,6,1.5,comp,left,0.799706632355,2
4,104,8,180,0.4,6,-1.0,comp,right,0.635161265967,2
4,105,8,180,0.8,6,2.0,comp,left,0.635050112822,2
4,106,8,0,0.0,6,1.5,comp,right,0.882012086564,2
4,107,8,0,0.8,6,2.0,comp,right,0.705623160946,2
4,108,8,180,0.2,6,2.0,comp,left,0.705615495212,2
4,109,8,0,0.2,6,0.5,comp,right,0.846713680614,2
4,110,8,0,0.0,6,0.0,comp,right,1.23476310774,2
4,111,8,180,0.6,6,1.5,comp,left,0.682119636815,2
4,112,8,0,0.8,6,-0.5,comp,left,1.17608804555,2
4,113,8,180,0.4,6,-1.5,comp,right,0.952554088461,2
4,114,8,180,0.0,6,1.0,comp,left,0.623251014847,2
4,115,8,0,0.8,6,-1.0,comp,left,0.90555202293,2
4,116,8,0,0.6,6,2.0,comp,right,0.729111736888,2
4,117,8,180,0.0,6,-0.5,comp,right,4.1396336469,2
4,118,8,180,0.8,6,-0.5,comp,right,2.24620996523,2
4,119,8,180,0.6,6,0.5,comp,right,1.44651253175,2
4,120,8,180,0.2,6,-2.0,comp,right,0.776152514383,2
4,121,8,0,0.6,6,1.5,comp,right,0.740889370809,2
4,122,8,0,0.2,6,-2.0,comp,left,0.611557704004,2
4,123,8,180,0.8,6,0.0,comp,right,0.870230619777,2
4,124,8,180,0.4,6,1.5,comp,left,0.693861625066,2
4,125,8,0,0.8,6,1.5,comp,right,0.787939730468,2
4,126,8,0,0.2,6,1.5,comp,left,0.952563287341,2
4,127,8,0,0.6,6,0.0,comp,right,1.44652709664,2
4,128,8,0,0.6,6,0.5,comp,right,0.846729778656,2
4,129,8,0,0.8,6,1.0,comp,right,0.752688085497,2
4,130,8,0,0.4,6,2.0,comp,right,0.846733611521,2
4,131,8,180,0.0,6,-1.5,comp,left,0.682080924857,2
4,132,8,180,0.6,6,1.0,comp,left,0.799684018439,2
4,133,8,0,0.2,6,1.0,comp,left,0.79970011648,2
4,134,8,180,0.2,6,1.5,comp,left,0.846739360826,2
4,135,8,180,0.4,6,-0.5,comp,right,1.02316316553,2
4,136,8,180,0.6,6,-2.0,comp,right,1.84639325293,2
4,137,8,180,0.6,6,-0.5,comp,left,0.787916733261,2
4,138,8,180,0.6,6,-1.0,comp,right,1.5758629796,2
4,139,8,0,0.2,6,-0.5,comp,right,0.87025629999,2
4,140,8,0,0.8,6,0.0,comp,right,1.12898402576,2
4,141,8,0,0.8,6,0.5,comp,right,0.752680036476,2
4,142,8,0,0.4,6,-2.0,comp,left,1.51706028295,2
4,143,8,180,0.8,6,-1.0,comp,right,0.764411292701,2
4,144,8,180,0.6,6,2.0,comp,left,0.752680036476,2
4,145,8,0,0.4,6,1.5,comp,right,0.682075558841,2
4,146,8,180,0.8,6,0.5,comp,left,0.646794784083,2
4,147,8,0,0.4,6,-0.5,comp,right,0.658575867576,2
4,148,8,0,0.6,6,-1.0,comp,right,0.905517527128,2
4,149,8,180,0.4,6,0.0,comp,left,0.646838862052,2
4,150,8,0,0.6,6,1.0,comp,right,0.752650906685,2
4,151,8,180,0.6,6,-1.5,comp,left,0.682108904784,2
4,152,8,180,0.4,6,0.5,comp,left,0.529207788539,2
4,153,8,180,0.2,6,0.5,comp,left,0.588013934772,2
4,154,8,0,0.2,6,0.0,comp,right,0.599744041137,2
4,155,8,180,0.2,6,-1.0,comp,left,0.576225568824,2
4,156,8,180,0.2,6,-1.5,comp,right,0.717384313532,2
4,157,8,0,0.6,6,-2.0,comp,left,0.529204338956,2
4,158,8,0,0.2,6,2.0,comp,right,0.740902019268,2
4,159,8,180,0.8,6,-2.0,comp,right,0.97610514014,2
4,160,8,0,0.8,6,-2.0,comp,right,0.787908300957,2
4,161,8,0,0.0,6,-2.0,comp,left,0.729115186474,2
4,162,8,0,0.6,6,-1.5,comp,right,0.976099007556,2
4,163,8,180,0.2,6,1.0,comp,left,0.611522824915,2
4,164,8,0,0.2,6,-1.0,comp,right,1.37596209754,2
4,165,8,180,0.6,6,0.0,comp,left,0.787933981166,2
4,166,8,0,0.0,6,0.5,comp,left,0.905541290904,2
4,167,8,0,0.2,6,-1.5,comp,left,0.834972075649,2
4,168,8,0,0.4,6,0.0,comp,left,3.16353118976,2
4,169,8,180,0.8,6,-1.5,comp,right,1.95219226581,2
4,170,8,180,0.0,6,-1.0,comp,right,0.834965943057,2
4,171,8,0,0.8,6,-1.5,comp,left,1.09367910394,2
4,172,8,180,0.4,6,1.0,comp,left,2.1873919371,2
4,173,8,0,0.4,6,-1.0,comp,left,1.48175804413,2
4,174,8,0,0.0,6,2.0,comp,right,0.787930914874,2
4,175,8,0,0.4,6,0.5,comp,left,2.01097349841,2
4,176,8,0,0.0,6,1.0,comp,right,1.75226340382,2
4,177,8,180,0.4,6,2.0,comp,left,2.35205995524,2
4,178,8,180,0.8,6,1.5,comp,left,0.823296012706,2
4,179,8,180,0.2,6,0.0,comp,left,0.82319904117,2
4,180,8,180,0.0,6,0.5,comp,left,0.764450771228,2
4,181,8,0,0.4,6,-0.5,comp,left,0.999608280985,2
